aX,aY,aZ,gX,gY,gZ
0.943,-0.550,1.542,84.534,387.146,135.620
0.826,-0.605,1.719,95.886,395.569,126.221
0.602,-0.854,2.162,93.567,391.174,110.168
0.320,-0.867,2.664,55.603,369.263,84.595
0.125,-0.528,2.739,-10.193,327.515,49.622
0.079,-0.364,2.629,-56.274,273.682,10.620
0.209,-0.206,2.463,-71.533,212.402,-30.029
0.387,-0.239,2.157,-57.373,145.264,-66.956
0.539,-0.286,1.829,-27.283,80.322,-95.032
0.640,-0.248,1.483,0.061,21.240,-110.474
0.672,-0.167,1.148,18.494,-25.757,-112.366
0.673,-0.061,0.947,29.114,-55.725,-105.774
0.699,0.052,0.855,39.978,-70.679,-97.839
0.751,0.169,0.780,58.044,-72.205,-92.041
0.788,0.292,0.696,71.594,-64.148,-88.135
0.726,0.319,0.712,75.134,-48.767,-85.449
0.802,0.314,1.075,64.880,-29.663,-86.365
0.825,0.226,1.507,13.794,-17.090,-88.501
0.768,0.045,1.840,-56.641,-20.508,-97.900
0.729,0.081,2.027,-116.028,-41.077,-123.352
0.696,0.103,2.163,-143.982,-75.562,-158.630
0.644,0.118,2.162,-157.593,-116.272,-192.993
0.565,0.112,2.073,-168.579,-156.006,-215.759
0.482,0.082,1.979,-171.204,-190.857,-223.450
0.446,0.051,1.932,-170.837,-218.750,-216.309
0.441,0.050,1.940,-168.823,-240.234,-195.679
0.410,0.046,1.836,-159.912,-256.104,-164.917
0.301,-0.013,1.515,-132.141,-262.024,-130.310
0.181,0.018,1.466,-78.308,-247.253,-99.854
0.124,0.076,1.511,-34.119,-218.201,-69.702
0.165,0.102,1.436,0.549,-188.843,-37.598
0.275,0.110,1.394,44.922,-160.461,-10.681
0.367,0.118,1.409,84.229,-136.108,10.010
0.387,0.074,1.438,110.779,-117.310,25.085
0.360,0.048,1.536,126.770,-107.361,32.288
0.309,0.007,1.547,136.902,-105.286,28.076
0.263,-0.041,1.447,137.634,-109.375,13.855
0.243,-0.070,1.320,125.183,-113.220,-6.958
0.231,-0.057,1.232,101.807,-113.403,-31.433
0.218,-0.033,1.189,75.684,-108.887,-56.091
0.205,-0.024,1.151,51.392,-100.769,-78.735
0.218,0.013,1.108,28.442,-90.759,-97.473
0.264,0.018,1.093,8.301,-79.468,-111.755
0.302,0.031,1.161,-8.484,-67.993,-121.765
0.271,0.002,1.259,-24.902,-58.838,-127.686
0.210,0.038,1.285,-39.856,-52.612,-130.371
0.171,0.076,1.349,-52.002,-47.852,-133.911
0.127,0.080,1.345,-54.504,-45.105,-138.672
0.082,0.062,1.283,-47.852,-42.664,-145.264
0.056,0.038,1.217,-39.368,-38.513,-151.611
0.019,0.077,1.210,-36.133,-32.715,-156.372
-0.034,0.196,1.235,-39.246,-26.978,-158.264
-0.066,0.290,1.207,-42.114,-23.499,-156.311
-0.079,0.346,1.188,-40.161,-20.691,-152.222
-0.093,0.386,1.179,-39.307,-19.165,-146.423
-0.122,0.411,1.144,-43.701,-18.188,-138.489
-0.164,0.463,1.121,-50.659,-17.334,-128.784
-0.209,0.488,1.123,-56.213,-16.052,-116.760
-0.255,0.474,1.151,-63.293,-16.602,-102.173
-0.302,0.467,1.165,-71.472,-19.043,-87.646
-0.329,0.458,1.162,-77.637,-24.292,-74.890
-0.321,0.442,1.142,-81.787,-31.555,-63.904
-0.304,0.414,1.140,-81.848,-39.429,-54.810
-0.297,0.419,1.127,-81.360,-48.035,-48.340
-0.281,0.416,1.067,-80.688,-56.335,-42.786
-0.241,0.417,0.996,-78.186,-62.134,-39.246
-0.247,0.423,0.917,-70.679,-65.125,-36.682
-0.257,0.453,0.794,-59.021,-64.758,-33.997
-0.263,0.476,0.702,-44.434,-59.265,-30.579
-0.257,0.530,0.633,-31.921,-48.279,-24.658
-0.253,0.556,0.615,-23.560,-34.607,-15.015
-0.255,0.541,0.667,-21.912,-21.362,-2.930
-0.259,0.507,0.706,-29.785,-11.353,9.033
-0.252,0.444,0.736,-38.818,-5.676,18.677
-0.236,0.357,0.787,-44.250,-3.784,23.621
-0.201,0.266,0.789,-48.279,-6.226,23.865
-0.148,0.164,0.763,-47.302,-11.353,19.958
-0.119,0.069,0.744,-40.588,-16.907,12.817
-0.155,0.003,0.736,-30.701,-21.301,5.005
-0.228,-0.021,0.753,-17.761,-25.024,-3.235
-0.281,0.005,0.775,-5.676,-27.466,-11.475
-0.305,0.051,0.779,1.953,-27.832,-19.287
-0.314,0.087,0.785,6.409,-26.123,-27.039
-0.297,0.108,0.782,8.545,-23.682,-34.973
-0.260,0.103,0.749,8.850,-21.179,-42.664
-0.225,0.067,0.704,11.414,-18.860,-49.744
-0.228,0.008,0.654,17.334,-15.808,-55.908
-0.271,-0.017,0.621,27.588,-13.184,-61.340
-0.327,0.013,0.633,41.687,-11.169,-66.956
-0.381,0.133,0.675,50.049,-9.827,-72.205
-0.422,0.250,0.672,48.645,-9.766,-75.439
-0.425,0.330,0.638,44.312,-10.376,-78.735
-0.404,0.407,0.571,38.757,-11.292,-82.092
-0.383,0.458,0.491,31.799,-12.146,-84.106
-0.357,0.460,0.416,25.085,-13.306,-83.618
-0.338,0.449,0.362,20.020,-14.954,-79.590
-0.341,0.438,0.319,18.066,-16.296,-71.838
-0.356,0.419,0.315,18.921,-17.029,-60.486
-0.381,0.406,0.339,20.935,-17.151,-47.363
-0.404,0.413,0.371,22.583,-17.639,-34.180
-0.404,0.418,0.385,22.461,-18.494,-22.949
-0.381,0.406,0.383,20.203,-19.897,-14.221
-0.348,0.386,0.369,18.433,-20.874,-9.216
-0.328,0.370,0.346,17.029,-21.606,-6.653
-0.318,0.360,0.321,14.404,-21.484,-5.432
-0.312,0.351,0.315,10.742,-21.179,-4.822
-0.308,0.344,0.327,6.958,-20.752,-4.578
-0.313,0.341,0.342,5.066,-20.142,-4.333
-0.327,0.346,0.371,3.723,-19.592,-4.272
-0.346,0.365,0.438,0.366,-19.104,-3.845
-0.375,0.400,0.505,-5.859,-19.226,-2.991
-0.388,0.427,0.536,-12.512,-20.752,-1.953
-0.378,0.426,0.546,-16.907,-22.583,-0.977
-0.360,0.414,0.542,-19.104,-24.597,-0.366
-0.348,0.404,0.541,-20.813,-26.489,0.061
-0.344,0.410,0.548,-22.095,-27.649,0.793
-0.349,0.418,0.561,-23.071,-29.053,2.380
-0.351,0.431,0.597,-24.048,-29.114,4.333
-0.357,0.446,0.654,-26.428,-29.663,7.019
"",,,,,
1.805,-0.464,0.732,39.246,333.923,45.776
1.926,-0.617,0.824,45.715,331.909,45.715
1.925,-0.681,0.894,47.180,323.730,39.490
1.875,-0.705,0.910,52.429,310.547,30.090
1.868,-0.656,0.865,58.472,294.373,19.592
1.877,-0.583,0.780,67.749,277.771,10.437
1.906,-0.538,0.685,80.139,262.817,5.066
1.952,-0.500,0.584,90.637,249.451,2.991
2.006,-0.504,0.511,100.586,239.685,2.502
2.044,-0.572,0.468,110.901,231.689,3.174
2.070,-0.655,0.450,118.286,225.464,3.052
2.073,-0.698,0.455,122.375,220.337,1.709
2.084,-0.722,0.472,126.404,214.905,-0.244
2.098,-0.733,0.490,133.118,208.618,-3.174
2.083,-0.747,0.505,141.602,201.538,-6.592
1.990,-0.782,0.536,145.203,194.946,-9.521
1.879,-0.814,0.553,137.878,187.073,-11.353
1.749,-0.789,0.548,118.103,175.842,-11.230
1.604,-0.728,0.522,91.553,160.767,-9.216
1.514,-0.674,0.486,65.674,143.433,-5.676
1.470,-0.604,0.427,45.593,123.108,-1.526
1.402,-0.517,0.344,27.893,101.685,3.845
1.374,-0.430,0.249,9.705,81.116,9.766
1.397,-0.349,0.157,-0.366,62.195,15.808
1.403,-0.271,0.073,3.601,45.410,21.057
1.389,-0.229,0.008,16.724,33.081,25.391
1.380,-0.242,-0.034,28.931,26.489,30.334
1.359,-0.328,-0.041,35.828,24.902,36.499
1.314,-0.446,-0.015,34.790,25.879,42.419
1.255,-0.554,0.027,27.832,27.222,45.654
1.214,-0.656,0.058,18.982,26.489,46.082
1.184,-0.729,0.075,9.033,23.254,43.152
1.147,-0.751,0.071,-0.244,17.517,37.964
1.127,-0.735,0.052,-6.592,10.254,31.311
1.117,-0.706,0.017,-7.935,2.136,23.865
1.112,-0.677,-0.022,-4.272,-5.005,16.357
1.109,-0.651,-0.061,1.343,-10.376,9.155
1.108,-0.628,-0.099,5.676,-13.977,2.625
1.116,-0.600,-0.133,6.104,-14.282,-3.052
1.116,-0.560,-0.157,2.380,-12.817,-7.507
1.109,-0.508,-0.169,-3.052,-9.521,-11.536
1.100,-0.455,-0.170,-8.789,-5.798,-14.282
1.091,-0.401,-0.166,-14.709,-2.869,-15.320
1.082,-0.349,-0.163,-19.165,-0.610,-15.198
1.073,-0.303,-0.146,-20.996,1.221,-14.343
1.060,-0.275,-0.123,-21.240,1.831,-12.329
1.049,-0.264,-0.100,-21.790,1.160,-9.338
1.041,-0.261,-0.087,-22.278,-1.099,-5.432
1.025,-0.271,-0.086,-21.606,-4.333,-1.465
1.014,-0.297,-0.094,-20.264,-8.484,2.625
1.007,-0.338,-0.111,-18.616,-12.573,6.104
0.998,-0.379,-0.130,-17.700,-16.479,8.850
0.985,-0.410,-0.145,-17.944,-19.653,10.498
0.975,-0.440,-0.161,-18.372,-21.912,11.414
0.967,-0.470,-0.171,-19.043,-23.010,11.719
0.957,-0.490,-0.183,-19.775,-24.353,10.742
0.948,-0.499,-0.197,-20.020,-25.208,9.155
0.951,-0.500,-0.210,-19.897,-25.269,7.019
0.951,-0.504,-0.218,-18.738,-24.719,4.639
0.945,-0.501,-0.228,-17.639,-23.560,1.953
0.933,-0.481,-0.241,-19.226,-22.278,-0.671
0.927,-0.448,-0.255,-21.362,-20.752,-3.296
0.929,-0.422,-0.259,-21.423,-17.944,-4.639
0.926,-0.403,-0.255,-20.508,-13.977,-5.493
0.932,-0.399,-0.238,-19.836,-9.644,-5.859
0.942,-0.406,-0.210,-19.775,-5.615,-6.165
0.955,-0.423,-0.174,-19.409,-1.953,-6.592
0.965,-0.448,-0.135,-19.409,1.038,-7.690
0.970,-0.474,-0.093,-19.836,3.235,-9.521
0.979,-0.501,-0.049,-20.081,4.822,-12.207
0.987,-0.515,-0.006,-20.813,5.127,-15.259
0.991,-0.520,0.029,-21.973,3.784,-18.677
0.998,-0.529,0.061,-23.254,1.465,-21.912
1.004,-0.543,0.091,-24.719,-1.953,-24.475
1.012,-0.559,0.116,-27.222,-6.348,-26.733
1.024,-0.554,0.132,-30.212,-11.597,-28.870
1.026,-0.534,0.132,-32.532,-18.616,-30.579
1.023,-0.528,0.124,-32.959,-25.879,-31.494
1.024,-0.533,0.113,-32.471,-32.837,-32.288
1.027,-0.546,0.103,-32.043,-39.063,-32.715
1.027,-0.563,0.099,-32.043,-44.556,-32.715
1.024,-0.582,0.095,-32.104,-49.622,-33.447
1.020,-0.606,0.092,-30.579,-53.955,-34.729
1.025,-0.626,0.095,-28.687,-57.678,-36.743
1.021,-0.630,0.105,-26.917,-60.852,-40.161
1.025,-0.609,0.116,-24.841,-63.843,-44.312
1.029,-0.582,0.116,-22.644,-67.444,-48.279
1.033,-0.547,0.114,-20.996,-71.289,-51.392
1.035,-0.510,0.109,-18.433,-74.646,-53.223
1.036,-0.490,0.101,-14.587,-77.271,-53.894
1.033,-0.494,0.101,-11.169,-79.773,-53.223
1.034,-0.513,0.103,-8.667,-82.275,-51.636
1.030,-0.536,0.103,-6.958,-84.778,-50.049
1.028,-0.553,0.093,-5.737,-87.463,-48.767
1.023,-0.535,0.057,-6.592,-89.905,-47.546
1.009,-0.522,0.034,-7.202,-90.759,-46.082
1.005,-0.504,0.006,-6.714,-89.844,-44.434
0.999,-0.502,-0.004,-4.761,-88.318,-42.603
0.984,-0.498,-0.004,-2.502,-85.632,-40.894
0.963,-0.493,-0.010,1.648,-81.421,-39.124
0.954,-0.517,0.002,5.859,-76.355,-37.781
0.948,-0.536,0.013,9.277,-70.801,-36.865
0.946,-0.573,0.047,13.428,-64.880,-36.682
0.943,-0.607,0.103,15.869,-59.143,-37.170
0.935,-0.642,0.161,16.541,-54.260,-37.903
0.941,-0.692,0.226,15.381,-50.659,-38.513
0.944,-0.743,0.275,11.108,-49.255,-39.124
0.941,-0.789,0.315,3.906,-50.110,-40.649
0.938,-0.803,0.306,-4.150,-52.917,-43.030
0.916,-0.726,0.178,-10.132,-54.626,-45.471
0.896,-0.785,0.198,-16.479,-53.101,-45.837
0.912,-0.821,0.217,-22.034,-52.063,-47.546
0.909,-0.810,0.248,-23.926,-52.795,-51.514
0.895,-0.799,0.275,-20.508,-54.138,-56.030
0.880,-0.770,0.285,-13.672,-56.213,-60.486
0.889,-0.806,0.338,-6.226,-58.838,-64.880
0.887,-0.765,0.380,-0.061,-62.744,-69.519
0.879,-0.721,0.399,6.958,-67.627,-72.571
0.863,-0.688,0.388,11.841,-73.547,-73.486
"",,,,,
1.089,-2.020,0.703,-132.019,96.130,393.188
1.064,-1.924,0.066,-87.280,80.627,377.563
1.066,-2.080,-0.201,-43.945,83.008,365.845
1.174,-1.960,-0.412,-37.659,100.098,353.149
1.315,-1.787,-0.153,-61.523,132.446,345.337
1.290,-1.802,0.167,-75.134,166.016,344.299
1.463,-2.276,0.467,-79.590,195.068,349.182
1.506,-2.972,0.750,-101.440,220.398,346.802
1.422,-3.463,0.939,-146.545,242.371,321.716
1.399,-3.191,0.996,-211.487,263.000,271.301
1.349,-2.607,0.891,-269.043,281.189,209.778
1.328,-2.010,0.600,-305.176,296.448,154.297
1.335,-1.480,0.139,-356.873,318.970,104.919
1.389,-1.151,-0.188,-476.379,356.445,58.533
1.352,-0.904,-0.215,-607.300,395.447,13.672
1.231,-0.735,0.055,-665.222,424.072,-29.785
1.286,-0.423,0.582,-659.851,423.157,-72.998
1.390,-0.002,1.052,-550.232,378.967,-96.985
1.635,-0.332,1.197,-331.604,298.889,-94.543
1.643,-0.473,1.068,-140.381,216.736,-102.356
1.740,-0.395,0.856,-39.124,168.396,-119.751
1.969,-0.373,0.812,28.748,148.987,-137.756
2.041,-0.029,1.245,46.631,142.700,-142.090
1.686,0.449,1.837,10.437,128.784,-118.835
1.224,0.625,2.165,10.071,83.496,-75.073
0.959,0.185,1.760,28.687,16.113,-21.423
1.014,-0.536,0.990,-0.732,-40.222,21.545
0.991,-1.085,0.418,-29.663,-66.956,35.400
0.978,-1.809,-0.009,-25.940,-76.538,16.357
1.117,-0.914,-0.276,-21.057,-68.054,-26.917
1.135,-0.439,-0.176,-26.611,-46.448,-60.608
1.138,-0.176,-0.025,-21.301,-25.879,-69.824
1.154,-0.162,0.068,-21.851,-9.033,-69.153
1.194,-0.221,0.153,-19.836,2.869,-65.613
1.112,-0.278,0.249,-20.020,12.817,-61.707
1.080,-0.328,0.352,-22.339,19.653,-57.617
1.051,-0.275,0.428,-26.672,24.841,-53.650
1.039,-0.196,0.500,-34.119,26.428,-47.607
1.050,-0.156,0.532,-43.762,25.452,-39.307
1.027,-0.138,0.534,-51.086,21.667,-30.212
0.997,-0.118,0.497,-57.129,16.541,-20.203
0.976,-0.101,0.462,-60.913,11.902,-10.132
0.967,-0.091,0.443,-59.692,8.789,-0.977
0.973,-0.091,0.427,-55.542,6.592,8.423
0.974,-0.092,0.420,-51.453,6.836,17.212
0.980,-0.086,0.425,-47.974,7.690,25.452
1.004,-0.080,0.423,-41.077,7.446,33.325
0.980,-0.102,0.413,-25.757,6.165,41.504
0.957,-0.153,0.376,-5.127,5.371,50.842
0.962,-0.224,0.325,11.902,6.836,60.303
0.961,-0.281,0.282,18.616,11.108,69.214
0.931,-0.325,0.270,15.564,19.531,76.843
0.928,-0.365,0.297,7.568,29.297,82.703
0.953,-0.402,0.384,-2.075,39.124,85.510
0.973,-0.452,0.489,-6.958,42.725,87.036
0.965,-0.495,0.593,-7.324,41.138,86.060
0.964,-0.530,0.670,-6.653,33.447,83.008
0.964,-0.543,0.718,-7.812,21.729,78.491
0.951,-0.532,0.722,-8.606,6.653,72.205
0.937,-0.507,0.675,-8.362,-7.690,65.369
0.914,-0.484,0.597,-10.193,-20.630,58.533
0.889,-0.470,0.512,-13.733,-30.396,52.551
0.871,-0.470,0.428,-15.198,-34.729,46.814
0.865,-0.477,0.356,-13.062,-34.607,43.091
0.876,-0.503,0.311,-12.573,-31.067,41.199
0.897,-0.523,0.293,-16.968,-25.696,38.391
0.911,-0.531,0.287,-20.935,-19.531,34.363
0.900,-0.530,0.291,-23.193,-13.245,29.419
0.894,-0.520,0.296,-26.367,-6.958,24.414
0.898,-0.500,0.308,-31.433,-1.099,19.287
0.920,-0.476,0.326,-34.668,4.028,14.160
0.949,-0.448,0.358,-36.438,9.277,9.827
0.962,-0.413,0.400,-36.255,12.634,5.920
0.960,-0.368,0.433,-32.654,14.893,1.953
0.965,-0.338,0.468,-27.710,15.869,-1.587
0.979,-0.318,0.508,-24.170,13.977,-4.761
1.003,-0.304,0.539,-20.386,11.047,-8.179
1.006,-0.293,0.553,-16.418,6.714,-11.841
1.016,-0.278,0.555,-13.916,3.967,-14.771
1.000,-0.269,0.536,-11.230,-0.244,-17.151
0.978,-0.260,0.497,-10.010,-3.540,-18.799
0.970,-0.244,0.449,-14.893,-5.249,-19.531
0.981,-0.208,0.408,-25.879,-4.639,-19.653
0.990,-0.186,0.375,-38.147,-2.869,-18.677
1.009,-0.166,0.370,-50.903,1.282,-17.273
1.010,-0.159,0.395,-64.148,6.958,-14.954
0.991,-0.156,0.441,-78.003,12.207,-11.230
0.967,-0.152,0.490,-87.585,16.296,-7.385
0.945,-0.146,0.528,-91.675,16.968,-4.028
0.924,-0.159,0.552,-89.600,15.198,-1.099
0.904,-0.173,0.567,-85.571,12.146,1.587
0.876,-0.189,0.567,-81.299,9.766,4.150
0.867,-0.214,0.561,-75.500,7.507,6.104
0.865,-0.215,0.553,-71.960,4.700,6.531
0.848,-0.192,0.534,-68.298,2.380,5.310
0.786,-0.133,0.502,-65.369,1.282,4.272
0.801,-0.068,0.551,-63.049,1.404,4.761
0.799,-0.086,0.562,-40.894,4.395,6.042
0.832,-0.093,0.538,-15.137,3.479,5.005
0.856,-0.075,0.510,-8.179,0.977,3.296
0.856,-0.078,0.480,0.183,0.488,1.099
0.851,-0.074,0.465,6.348,1.160,-1.038
0.854,-0.075,0.460,7.507,1.465,-1.953
0.845,-0.081,0.473,2.625,0.977,-1.160
0.844,-0.076,0.496,-9.460,-1.282,1.099
0.859,-0.060,0.518,-23.254,-4.639,3.479
0.870,-0.041,0.534,-35.217,-9.949,6.348
0.893,-0.023,0.540,-46.753,-15.686,9.705
0.916,-0.001,0.547,-60.364,-22.217,14.648
0.924,0.017,0.551,-73.975,-27.283,19.470
0.917,0.031,0.557,-86.060,-32.288,24.536
0.931,0.040,0.553,-97.351,-36.804,29.663
0.999,0.053,0.560,-112.061,-41.443,35.156
1.052,0.067,0.583,-127.441,-45.471,41.077
1.051,0.076,0.608,-135.986,-48.523,45.776
1.061,0.084,0.625,-135.986,-50.903,48.462
1.115,0.096,0.635,-130.005,-52.002,49.561
1.136,0.096,0.642,-118.042,-51.636,48.584
1.113,0.073,0.642,-104.248,-51.697,46.692
"",,,,,
0.437,2.130,1.368,-20.691,73.975,105.103
0.812,2.509,1.482,27.710,81.665,118.774
1.248,2.606,1.515,111.755,74.402,146.118
1.648,2.389,1.462,205.627,49.744,185.120
1.904,2.012,1.286,272.583,11.108,229.187
1.907,1.511,1.048,297.119,-35.583,269.958
1.815,1.059,0.749,283.447,-85.022,299.927
1.690,0.675,0.412,238.098,-127.197,314.819
1.482,0.294,0.204,162.170,-152.954,316.284
1.161,0.016,0.107,79.285,-159.363,304.504
0.863,-0.110,0.056,19.287,-146.790,282.349
0.669,-0.172,0.071,-4.028,-118.591,256.531
0.561,-0.204,0.145,2.808,-81.604,228.271
0.537,-0.219,0.203,31.372,-44.983,196.228
0.560,-0.232,0.244,62.195,-16.357,163.757
0.609,-0.173,0.285,71.289,3.418,136.414
0.626,-0.132,0.355,59.509,15.198,114.197
0.619,-0.123,0.438,38.147,18.860,94.543
0.608,-0.021,0.438,14.099,16.602,75.500
0.570,0.017,0.448,-4.944,13.306,57.678
0.503,0.028,0.442,-14.160,13.000,39.978
0.394,0.050,0.456,-18.372,18.494,21.118
0.267,0.099,0.500,-21.606,30.396,-0.305
0.191,0.277,0.501,-18.555,46.265,-23.499
0.097,0.823,0.225,-9.033,65.247,-42.114
0.055,1.193,0.101,6.470,94.238,-44.006
0.054,1.255,0.325,16.357,129.517,-29.663
0.080,1.261,0.578,15.503,152.588,-8.728
0.149,1.068,0.924,13.794,160.706,12.146
0.269,0.923,1.121,9.460,150.757,30.396
0.416,0.849,1.160,2.563,129.700,44.556
0.518,0.752,1.183,-2.075,107.178,55.664
0.581,0.644,1.159,-0.305,86.365,62.744
0.621,0.510,1.116,2.869,68.604,67.627
0.612,0.472,1.003,2.258,54.565,69.885
0.564,0.473,0.909,-0.854,48.401,69.519
0.471,0.462,0.850,-2.563,51.270,64.697
0.371,0.371,0.859,11.658,60.425,52.917
0.285,0.268,0.892,27.527,68.237,38.330
0.238,0.180,0.940,28.198,73.181,24.231
0.267,0.144,0.999,19.226,74.951,11.108
0.331,0.139,1.017,12.390,72.449,-1.831
0.392,0.133,1.002,11.658,66.101,-14.709
0.452,0.176,0.949,13.428,55.908,-27.344
0.498,0.256,0.843,13.367,43.640,-38.086
0.530,0.308,0.739,8.484,31.311,-44.067
0.559,0.341,0.616,-0.305,20.630,-46.692
0.576,0.348,0.493,-8.362,12.573,-47.791
0.611,0.351,0.390,-11.841,8.667,-47.852
0.652,0.308,0.312,-10.803,10.803,-47.424
0.660,0.203,0.267,-6.165,20.691,-48.706
0.630,0.118,0.223,1.160,36.682,-54.077
0.591,-0.028,0.243,8.606,57.312,-63.538
0.556,-0.141,0.228,11.841,80.139,-77.271
0.578,-0.205,0.297,5.737,103.394,-95.093
0.678,-0.157,0.437,-8.545,123.962,-116.760
0.818,0.017,0.575,-27.100,137.329,-138.672
0.934,0.281,0.669,-49.133,140.869,-155.212
1.026,0.526,0.801,-72.876,135.620,-161.743
1.093,0.709,0.943,-91.187,123.047,-159.363
1.120,0.799,1.010,-97.473,103.088,-150.269
1.098,0.823,1.012,-93.689,81.116,-138.306
1.025,0.784,0.980,-82.397,61.462,-126.343
0.940,0.726,0.942,-68.176,46.875,-116.028
0.892,0.667,0.877,-52.490,37.354,-107.544
0.892,0.600,0.807,-36.560,34.119,-100.891
0.909,0.534,0.758,-20.813,36.743,-97.229
0.883,0.468,0.737,-6.714,41.687,-96.375
0.843,0.412,0.730,0.122,45.532,-95.703
0.833,0.368,0.726,-4.700,45.898,-92.957
0.849,0.348,0.715,-19.653,41.626,-88.806
0.850,0.342,0.704,-37.598,34.302,-84.106
0.835,0.336,0.701,-51.880,25.635,-79.834
0.817,0.347,0.696,-63.232,17.700,-76.294
0.805,0.380,0.686,-69.580,11.292,-73.730
0.802,0.421,0.680,-67.383,6.958,-70.557
0.804,0.443,0.669,-60.059,4.211,-66.162
0.802,0.457,0.657,-54.199,2.075,-59.998
0.806,0.466,0.649,-51.453,0.427,-52.795
0.827,0.447,0.642,-50.049,-1.221,-45.410
0.851,0.407,0.639,-50.842,-2.930,-38.940
0.868,0.379,0.633,-56.335,-5.981,-33.875
0.872,0.355,0.626,-66.223,-10.010,-29.907
0.876,0.330,0.617,-78.430,-13.306,-26.245
0.881,0.294,0.639,-92.590,-16.602,-23.010
0.895,0.274,0.680,-108.337,-20.142,-20.752
0.902,0.300,0.725,-122.375,-24.597,-19.592
0.914,0.357,0.744,-128.174,-30.151,-18.860
0.952,0.417,0.757,-121.643,-36.377,-17.517
0.990,0.443,0.761,-107.178,-44.373,-14.954
0.998,0.416,0.753,-93.323,-52.429,-11.353
1.001,0.364,0.726,-87.036,-61.035,-7.690
0.992,0.319,0.690,-86.609,-69.214,-6.409
0.967,0.292,0.648,-87.219,-76.599,-8.728
0.956,0.297,0.609,-88.013,-82.397,-13.489
0.939,0.332,0.580,-89.417,-85.999,-19.653
0.923,0.385,0.550,-89.233,-89.172,-24.658
0.908,0.433,0.521,-88.318,-92.346,-27.405
0.896,0.464,0.497,-88.501,-94.421,-27.100
0.883,0.480,0.475,-89.417,-94.727,-24.536
0.865,0.477,0.456,-87.708,-93.445,-21.118
0.844,0.451,0.439,-83.618,-90.698,-17.456
0.828,0.407,0.429,-79.346,-86.121,-14.404
0.800,0.346,0.427,-75.012,-80.200,-13.000
0.769,0.299,0.426,-71.899,-72.937,-14.709
0.753,0.284,0.428,-68.054,-64.941,-19.043
0.752,0.299,0.433,-62.012,-57.251,-25.513
0.766,0.333,0.450,-53.772,-49.866,-32.227
0.776,0.362,0.473,-45.776,-43.884,-37.964
0.781,0.380,0.496,-41.443,-39.856,-41.870
0.787,0.385,0.509,-41.443,-37.354,-43.762
0.789,0.385,0.516,-43.884,-36.865,-45.044
0.786,0.388,0.522,-47.546,-37.354,-46.753
0.780,0.396,0.526,-51.147,-37.598,-48.157
0.771,0.404,0.533,-53.955,-37.903,-49.133
0.757,0.410,0.539,-55.969,-38.574,-49.438
0.745,0.410,0.537,-58.472,-38.940,-48.645
0.742,0.413,0.531,-61.829,-40.039,-47.058
0.744,0.412,0.523,-62.683,-40.527,-45.776
"",,,,,
1.234,0.644,0.995,-24.536,44.922,84.778
1.320,0.607,1.079,-45.654,27.527,84.106
1.452,0.647,1.206,-54.199,11.719,75.928
1.638,0.905,1.218,-41.565,-3.601,65.247
1.725,1.068,1.199,-2.136,-17.944,63.171
1.692,1.108,1.126,56.885,-33.020,74.646
1.645,0.994,0.962,117.737,-48.218,100.159
1.577,0.792,0.773,151.611,-61.768,132.202
1.462,0.628,0.452,160.522,-75.623,163.025
1.390,0.319,0.302,148.987,-84.900,191.101
1.326,-0.007,0.195,113.281,-89.600,209.534
1.250,-0.280,0.135,74.036,-88.867,211.365
1.131,-0.482,0.134,43.762,-82.703,195.190
1.005,-0.552,0.141,22.583,-73.059,166.626
0.883,-0.528,0.149,9.338,-59.448,132.385
0.786,-0.438,0.173,7.080,-42.847,96.924
0.756,-0.312,0.190,15.686,-24.597,63.416
0.785,-0.145,0.176,29.602,-5.554,34.851
0.818,0.018,0.150,41.992,13.550,13.916
0.848,0.135,0.133,48.523,32.104,1.892
0.905,0.239,0.096,41.565,46.814,-1.709
0.959,0.328,0.096,20.752,59.082,1.343
0.988,0.377,0.129,-0.366,69.702,7.080
0.997,0.402,0.160,-14.771,78.796,11.108
0.995,0.411,0.182,-22.583,86.487,12.146
0.990,0.403,0.200,-25.757,94.299,10.315
0.985,0.406,0.209,-26.794,103.577,6.226
1.007,0.423,0.232,-28.076,115.417,0.488
1.048,0.467,0.272,-32.410,129.639,-6.226
1.097,0.533,0.334,-40.894,144.287,-12.451
1.143,0.619,0.425,-51.392,158.997,-17.395
1.190,0.690,0.534,-55.908,172.546,-20.325
1.350,0.759,0.654,-51.147,182.556,-21.912
1.533,0.859,0.819,-39.856,187.134,-20.691
1.733,0.955,0.993,-15.076,181.396,-14.954
1.866,0.968,1.145,26.123,161.926,-2.319
1.865,0.824,1.308,73.792,128.540,16.724
1.589,0.569,1.292,115.356,80.383,36.377
1.218,0.236,1.133,130.310,23.193,50.232
0.986,-0.055,0.928,102.783,-31.738,55.298
0.861,-0.217,0.715,47.668,-78.613,47.424
0.743,-0.251,0.499,-2.136,-114.441,29.114
0.683,-0.254,0.323,-31.372,-136.292,5.676
0.641,-0.211,0.155,-50.232,-146.301,-17.273
0.601,-0.124,0.031,-71.960,-147.278,-37.170
0.567,-0.000,-0.051,-96.069,-142.456,-55.176
0.554,0.140,-0.101,-114.563,-132.996,-70.313
0.543,0.301,-0.114,-119.873,-118.225,-80.933
0.582,0.404,-0.114,-108.093,-100.220,-85.571
0.656,0.493,-0.109,-99.487,-81.299,-86.243
0.721,0.586,-0.087,-104.187,-60.486,-85.205
0.770,0.646,-0.067,-112.244,-38.391,-82.275
0.761,0.689,-0.020,-118.408,-15.991,-77.820
0.757,0.729,0.052,-120.178,5.737,-70.984
0.776,0.765,0.152,-115.356,25.574,-60.242
0.855,0.836,0.272,-106.506,42.725,-46.997
0.941,0.877,0.427,-92.224,55.115,-30.029
0.980,0.814,0.592,-73.914,62.683,-10.498
0.977,0.667,0.741,-52.185,63.293,8.057
0.941,0.529,0.822,-25.818,57.556,21.179
0.890,0.365,0.833,4.700,48.584,27.771
0.829,0.220,0.789,28.748,37.842,26.978
0.793,0.139,0.717,37.781,27.100,20.447
0.797,0.116,0.634,33.875,18.982,10.803
0.818,0.142,0.561,23.865,13.733,-0.427
0.881,0.142,0.506,11.902,10.681,-10.498
1.230,0.627,1.153,-5.249,3.479,-17.944
1.103,0.784,1.131,-28.076,-24.170,-8.606
0.821,0.582,0.841,-43.030,-55.847,9.644
0.662,0.339,0.685,-47.852,-74.158,16.907
0.693,0.300,0.513,-54.871,-81.238,11.292
0.757,0.407,0.543,-72.510,-79.712,4.517
0.744,0.470,0.506,-94.299,-74.707,2.441
0.729,0.457,0.482,-105.286,-68.848,3.174
0.729,0.443,0.447,-104.492,-60.730,2.869
0.719,0.438,0.451,-100.891,-52.063,2.380
0.688,0.431,0.401,-99.731,-41.870,2.014
0.681,0.454,0.415,-101.624,-29.236,1.648
0.660,0.509,0.385,-101.929,-15.015,0.916
0.623,0.502,0.327,-95.520,-0.244,-0.183
0.615,0.524,0.325,-81.848,16.846,-3.418
0.585,0.504,0.285,-65.552,34.546,-7.324
0.545,0.372,0.262,-51.636,52.063,-13.062
0.569,0.316,0.301,-40.955,67.932,-23.499
0.655,0.404,0.344,-34.241,79.102,-36.621
0.755,0.515,0.388,-35.645,84.961,-45.227
0.831,0.626,0.435,-43.030,86.914,-47.546
0.874,0.720,0.476,-50.110,85.571,-44.983
0.885,0.782,0.510,-53.223,81.360,-38.452
0.859,0.797,0.537,-49.744,75.073,-29.663
0.817,0.780,0.545,-42.236,67.322,-20.081
0.781,0.740,0.547,-34.546,59.265,-10.559
0.765,0.689,0.538,-29.846,50.049,-1.770
0.756,0.646,0.533,-30.029,40.833,5.920
0.758,0.620,0.532,-35.522,29.785,13.123
0.766,0.604,0.531,-43.335,16.357,19.836
0.768,0.582,0.513,-51.453,0.732,26.062
0.763,0.569,0.494,-59.753,-15.259,31.677
0.758,0.558,0.461,-66.589,-31.616,36.804
0.757,0.539,0.427,-69.946,-45.593,41.504
0.758,0.504,0.384,-71.899,-57.495,45.349
0.765,0.471,0.348,-74.280,-66.101,47.913
0.782,0.452,0.325,-75.806,-72.327,49.011
0.789,0.442,0.301,-74.036,-77.515,49.377
0.789,0.438,0.270,-67.932,-82.703,48.401
0.786,0.443,0.245,-59.509,-86.365,46.631
0.782,0.461,0.228,-48.828,-88.562,44.556
0.764,0.466,0.204,-36.316,-90.393,42.725
0.735,0.471,0.185,-27.588,-89.905,42.053
0.706,0.476,0.176,-23.254,-86.670,42.297
0.685,0.482,0.165,-20.691,-83.008,43.396
0.658,0.494,0.165,-19.592,-79.956,44.739
0.651,0.508,0.176,-18.372,-78.247,46.753
0.739,0.839,-0.437,-22.034,-75.928,49.683
0.617,0.498,0.139,-24.841,-56.213,59.204
0.596,0.531,0.299,-23.315,-45.776,61.218
0.646,0.594,0.277,-15.503,-48.950,58.594
0.684,0.659,0.305,-13.855,-46.875,57.373
0.731,0.767,0.313,-8.545,-44.678,57.617
"",,,,,
0.421,0.204,0.500,127.808,-70.679,54.871
0.357,0.285,0.413,22.278,-56.030,50.232
0.474,0.382,0.839,-27.771,-45.349,44.617
0.502,0.704,1.232,-7.019,-58.594,39.795
0.336,0.366,0.751,-20.630,-56.824,34.607
0.362,0.407,0.839,-16.541,-55.359,29.907
0.369,0.481,0.880,-20.020,-50.415,23.926
0.370,0.423,0.783,-25.269,-43.762,18.982
0.396,0.426,0.786,-29.663,-36.499,14.099
0.395,0.404,0.712,-30.396,-28.503,9.888
0.427,0.475,0.785,-30.701,-19.714,5.615
0.454,0.474,0.743,-28.503,-11.047,1.648
0.466,0.476,0.696,-26.306,-2.808,-2.563
0.483,0.487,0.682,-25.940,4.944,-5.920
0.498,0.447,0.617,-24.963,11.841,-9.155
0.534,0.544,0.712,-24.048,17.212,-13.306
0.548,0.530,0.674,-24.475,21.729,-16.846
0.564,0.543,0.671,-25.024,25.940,-20.691
0.555,0.473,0.583,-24.780,28.442,-23.987
0.557,0.497,0.617,-27.588,30.396,-27.710
0.559,0.517,0.617,-29.846,31.433,-31.616
0.568,0.562,0.661,-34.912,32.532,-36.560
0.570,0.595,0.695,-35.767,31.494,-40.283
0.573,0.628,0.720,-34.790,28.381,-42.297
0.580,0.657,0.742,-33.203,23.804,-43.457
0.585,0.683,0.765,-28.809,18.860,-43.945
0.586,0.689,0.770,-20.691,12.207,-44.189
0.584,0.683,0.765,-14.404,6.104,-44.312
0.583,0.675,0.756,-12.939,0.549,-43.823
0.584,0.663,0.736,-15.076,-4.028,-43.152
0.589,0.660,0.712,-20.935,-7.812,-42.664
0.592,0.667,0.692,-27.039,-8.972,-42.664
0.602,0.680,0.684,-28.809,-8.911,-43.518
0.614,0.684,0.679,-24.231,-7.446,-45.105
0.619,0.699,0.676,-16.724,-4.761,-47.180
0.640,0.711,0.672,-8.301,-1.038,-48.035
0.667,0.722,0.678,0.061,3.479,-48.035
0.696,0.731,0.689,10.376,8.484,-47.729
0.725,0.732,0.700,22.156,13.123,-46.875
0.753,0.727,0.720,33.264,17.395,-45.288
0.775,0.714,0.744,44.067,20.325,-43.030
0.789,0.686,0.760,53.101,21.362,-40.405
0.789,0.651,0.766,57.373,20.508,-37.292
0.782,0.611,0.766,55.908,18.738,-34.424
0.773,0.576,0.757,50.354,15.625,-32.715
0.767,0.550,0.744,42.908,11.963,-32.227
0.768,0.536,0.733,36.072,8.057,-32.837
0.765,0.525,0.712,32.898,4.089,-34.546
0.760,0.516,0.691,31.433,1.099,-36.682
0.754,0.512,0.668,30.518,-0.916,-39.063
0.749,0.506,0.642,29.968,-2.136,-41.260
0.750,0.500,0.620,29.968,-2.747,-42.908
0.746,0.493,0.604,30.273,-2.625,-43.884
0.747,0.491,0.599,28.809,-2.502,-44.250
0.752,0.493,0.607,26.672,-2.625,-43.579
0.766,0.491,0.611,25.146,-3.357,-42.236
0.773,0.480,0.615,23.071,-4.272,-40.161
0.771,0.467,0.621,21.118,-5.676,-37.842
0.772,0.451,0.630,17.883,-7.507,-35.339
0.767,0.431,0.635,12.329,-10.315,-32.898
0.762,0.414,0.631,5.615,-13.123,-30.884
0.758,0.402,0.625,-1.892,-15.747,-29.663
0.751,0.401,0.619,-8.118,-17.578,-29.602
0.741,0.410,0.616,-11.414,-19.043,-30.701
0.737,0.424,0.615,-8.911,-19.226,-32.166
0.736,0.434,0.610,1.465,-18.250,-34.119
0.745,0.438,0.604,15.747,-16.846,-36.377
0.764,0.447,0.606,28.870,-14.893,-38.452
0.802,0.455,0.620,38.208,-13.123,-39.185
0.837,0.451,0.645,46.082,-11.719,-38.635
0.860,0.437,0.678,51.697,-11.108,-36.743
0.885,0.415,0.705,52.734,-12.146,-33.936
0.908,0.383,0.721,48.889,-14.160,-31.799
0.926,0.352,0.732,40.833,-16.113,-30.579
0.923,0.335,0.741,28.870,-16.968,-31.555
0.917,0.328,0.745,14.709,-17.456,-33.936
0.916,0.327,0.738,1.282,-16.846,-36.499
0.922,0.339,0.737,-10.437,-14.221,-38.818
0.936,0.355,0.737,-19.226,-10.254,-40.588
0.948,0.373,0.747,-23.315,-4.822,-41.626
0.951,0.391,0.775,-23.132,0.854,-41.504
0.956,0.412,0.807,-19.653,6.165,-40.039
0.974,0.413,0.847,-12.817,10.315,-36.438
0.983,0.392,0.887,-0.244,12.939,-31.921
0.961,0.353,0.917,16.602,13.550,-27.771
0.912,0.283,0.938,30.334,10.925,-24.109
0.856,0.198,0.949,33.813,5.554,-20.874
0.787,0.120,0.954,26.245,-1.526,-18.921
0.722,0.063,0.954,13.062,-9.583,-19.958
0.670,0.032,0.943,2.502,-18.250,-23.926
0.628,0.023,0.927,-3.723,-26.489,-29.724
0.583,0.030,0.910,-6.531,-33.020,-35.339
0.538,0.040,0.893,-5.798,-38.391,-39.734
0.507,0.053,0.882,-1.892,-42.725,-42.542
0.493,0.066,0.875,3.723,-45.593,-43.884
0.489,0.071,0.866,10.681,-48.462,-43.884
0.503,0.072,0.859,19.958,-51.758,-42.847
0.547,0.080,0.849,30.640,-55.176,-41.809
0.583,0.084,0.821,44.189,-59.570,-40.405
0.591,0.071,0.771,59.631,-63.721,-39.001
0.582,0.044,0.717,72.754,-66.162,-38.208
0.565,0.003,0.669,82.031,-66.284,-38.696
0.560,-0.031,0.632,85.144,-64.514,-40.710
0.582,-0.057,0.606,82.092,-62.012,-44.373
0.624,-0.068,0.591,73.975,-59.570,-49.377
0.664,-0.068,0.592,63.171,-57.434,-54.993
0.699,-0.065,0.588,53.040,-56.030,-61.279
0.739,-0.049,0.583,45.532,-56.946,-68.115
0.755,-0.031,0.571,41.260,-57.983,-76.050
0.746,-0.026,0.557,38.330,-59.570,-84.229
0.732,-0.030,0.555,33.630,-61.829,-91.736
0.702,-0.042,0.563,26.672,-64.270,-98.267
0.651,-0.064,0.587,17.578,-67.200,-103.149
0.577,-0.085,0.622,5.554,-70.923,-108.398
0.515,-0.098,0.646,-9.705,-75.806,-114.624
0.480,-0.101,0.652,-29.358,-82.642,-120.789
0.456,-0.090,0.643,-51.697,-89.783,-126.160
0.428,-0.067,0.623,-70.679,-95.398,-131.104
0.397,-0.040,0.600,-83.923,-98.206,-135.620
"",,,,,
-0.181,0.576,0.819,-22.583,-14.893,-34.729
-0.383,-0.006,0.939,-52.795,-24.292,2.869
-0.106,-0.167,0.986,-24.231,-18.127,6.592
0.075,-0.061,1.155,56.824,-8.484,-16.296
-0.027,-0.037,1.112,81.543,-4.578,-26.062
-0.133,-0.161,1.007,70.068,-5.432,-24.170
-0.144,-0.160,0.980,35.339,-3.906,-22.705
-0.095,-0.104,0.964,20.081,0.183,-26.001
-0.069,-0.099,0.933,13.794,5.005,-29.053
-0.072,-0.153,0.898,4.272,9.888,-29.968
-0.057,-0.150,0.858,-10.071,14.587,-31.189
-0.057,-0.117,0.837,-27.893,18.494,-32.654
-0.079,-0.072,0.849,-44.250,21.973,-33.630
-0.085,-0.005,0.906,-52.612,23.499,-35.095
-0.103,0.173,0.969,-48.523,24.109,-37.170
-0.140,0.647,0.993,-42.053,23.865,-34.058
-0.170,0.837,1.024,-44.495,22.278,-16.357
-0.104,0.521,1.043,-39.124,20.935,10.437
-0.008,0.155,1.003,-10.254,23.010,27.344
-0.004,0.003,0.970,19.226,28.320,29.541
-0.055,-0.002,0.980,31.006,34.119,25.879
-0.105,-0.030,0.989,29.724,36.987,24.292
-0.104,-0.052,0.917,26.428,38.330,24.414
-0.093,-0.047,0.885,30.884,43.396,26.917
-0.095,-0.044,0.892,40.405,48.828,28.442
-0.070,-0.049,0.901,62.561,47.546,25.146
-0.009,-0.077,0.880,104.492,38.635,16.479
0.130,-0.067,0.874,156.189,25.146,3.174
0.096,-0.087,0.915,201.965,13.000,-9.521
0.046,-0.150,0.956,227.966,3.845,-17.151
0.082,-0.196,0.972,225.220,-2.014,-20.752
0.069,-0.135,1.001,208.435,-6.958,-20.996
0.046,-0.098,1.039,196.045,-12.207,-18.188
0.047,-0.180,1.033,201.111,-18.677,-13.367
0.074,-0.301,0.969,215.576,-25.818,-8.118
0.129,-0.452,0.886,226.990,-32.776,-4.028
0.128,-0.486,0.831,217.896,-39.368,0.366
0.045,-0.414,0.817,189.453,-44.678,6.775
-0.071,-0.325,0.826,157.532,-51.453,16.357
-0.514,-0.862,1.333,113.647,-58.105,27.283
-0.436,-0.773,1.475,-11.597,-52.063,35.095
-0.332,-0.642,1.272,-94.666,-43.945,32.532
-0.149,-0.445,0.929,-111.572,-38.086,16.418
-0.079,-0.452,0.770,-95.642,-30.457,-4.517
-0.224,-0.603,0.888,-76.599,-25.208,-28.076
-0.331,-0.737,1.112,-73.669,-26.062,-52.490
-0.354,-0.710,1.225,-94.849,-32.776,-72.510
-0.444,-0.681,1.116,-112.854,-41.260,-82.520
-0.290,-0.414,1.121,-95.764,-51.880,-78.674
-0.113,-0.424,1.187,-100.647,-65.186,-60.364
0.003,-0.359,1.109,-117.615,-77.393,-36.682
-0.125,-0.388,0.921,-107.544,-84.229,-10.559
-0.199,-0.430,0.840,-67.627,-89.722,23.376
-0.230,-0.333,0.909,-21.423,-90.881,59.753
-0.320,-0.140,0.964,-5.005,-81.421,90.332
-0.319,0.299,1.155,-1.465,-62.073,116.089
-0.266,0.866,1.491,29.907,-39.673,143.066
-0.347,0.573,1.150,102.722,-23.193,175.781
-0.218,0.423,0.968,163.513,-9.521,205.200
-0.121,0.411,0.801,173.401,3.906,226.685
-0.001,0.095,0.484,161.804,12.939,244.995
0.227,-0.579,0.090,114.502,18.127,258.301
0.059,-2.176,0.183,-44.495,34.424,254.761
-0.088,-1.019,0.593,-129.272,65.063,195.801
-0.000,-0.735,1.066,-106.995,85.632,128.113
0.022,-0.718,1.098,-85.449,77.637,79.712
0.096,-0.490,1.009,-63.599,52.917,31.616
0.109,-0.345,1.054,-29.968,25.146,-9.277
0.041,-0.309,1.096,1.160,-2.869,-33.691
-0.034,-0.338,1.102,15.320,-28.503,-43.274
-0.084,-0.340,1.052,8.728,-47.913,-43.213
-0.096,-0.299,1.030,-10.559,-58.289,-37.476
-0.096,-0.216,1.002,-27.771,-61.279,-29.358
-0.110,-0.158,0.993,-35.522,-58.228,-20.325
-0.103,-0.150,1.001,-31.433,-50.659,-11.292
-0.120,-0.170,1.045,-23.926,-40.100,-2.319
-0.165,-0.189,1.079,-17.212,-27.344,7.324
-0.197,-0.232,1.096,-20.386,-14.038,17.273
-0.214,-0.263,1.127,-30.640,-1.343,26.062
-0.222,-0.279,1.172,-40.466,8.850,31.921
-0.213,-0.277,1.211,-54.077,15.747,34.973
-0.179,-0.279,1.197,-71.655,16.907,35.828
-0.148,-0.247,1.176,-87.158,14.160,34.729
-0.128,-0.204,1.152,-95.825,7.690,32.349
-0.117,-0.167,1.131,-97.351,-1.282,28.870
-0.109,-0.158,1.101,-96.191,-12.024,26.611
-0.100,-0.153,1.082,-95.642,-22.461,24.963
-0.091,-0.129,1.043,-96.924,-31.494,23.987
-0.090,-0.089,1.012,-100.403,-37.598,24.536
-0.101,-0.043,1.003,-102.661,-41.565,26.245
-0.107,-0.006,0.991,-99.670,-42.664,29.419
-0.074,0.020,0.976,-98.877,-41.992,33.569
-0.052,0.023,0.943,-102.234,-38.208,38.452
-0.059,0.035,0.921,-113.098,-32.349,43.152
-0.074,0.062,0.913,-127.563,-23.376,47.607
-0.111,0.094,0.917,-139.771,-13.245,51.880
-0.136,0.129,0.905,-146.362,-3.540,55.786
-0.138,0.161,0.901,-143.433,5.798,59.143
-0.100,0.123,0.890,-140.320,15.442,61.890
-0.059,0.082,0.847,-146.057,24.597,63.171
-0.019,0.075,0.770,-160.278,33.569,62.805
0.016,0.099,0.708,-177.917,42.053,61.584
0.025,0.176,0.667,-190.491,48.645,60.425
0.024,0.255,0.627,-189.514,53.894,59.631
0.042,0.288,0.623,-178.894,57.861,59.998
0.046,0.278,0.609,-162.720,62.256,60.791
0.029,0.240,0.603,-150.208,68.787,61.646
0.019,0.185,0.595,-145.020,76.050,62.805
0.010,0.166,0.621,-142.212,84.351,62.805
-0.009,0.171,0.673,-136.780,91.980,62.012
-0.025,0.188,0.735,-127.258,97.961,61.035
0.002,0.205,0.789,-117.737,102.661,59.265
0.042,0.206,0.839,-116.577,104.431,56.519
0.054,0.212,0.875,-124.573,105.469,52.551
0.086,0.218,0.886,-137.085,105.103,46.448
0.114,0.241,0.897,-153.442,102.600,38.086
0.085,0.279,0.892,-170.715,99.182,28.381
0.017,0.357,0.896,-184.875,94.604,17.395
-0.020,0.419,0.907,-188.110,86.487,6.226
"",,,,,
0.085,1.589,0.785,-218.201,19.592,-82.031
0.075,1.588,0.794,-206.421,19.287,-77.942
0.069,1.624,0.789,-202.087,16.541,-79.529
0.011,1.597,0.717,-205.505,10.071,-80.261
-0.073,1.557,0.591,-208.313,3.723,-77.393
-0.147,1.557,0.515,-202.209,-0.122,-69.885
-0.196,1.600,0.469,-192.566,0.610,-57.434
-0.198,1.644,0.371,-188.843,5.066,-40.405
-0.148,1.628,0.248,-182.739,15.076,-21.301
-0.054,1.479,0.172,-169.983,28.625,-3.662
-0.015,1.267,0.162,-162.292,38.269,11.353
0.020,0.936,0.164,-177.856,36.560,26.428
0.035,0.664,0.107,-235.779,20.020,41.321
-0.005,0.513,-0.186,-331.360,-6.714,57.068
-0.006,0.521,-0.642,-436.035,-31.555,73.364
-0.050,0.701,-1.041,-510.254,-43.457,87.097
-0.179,0.906,-1.344,-525.879,-41.138,95.276
-0.361,1.156,-1.456,-509.216,-29.236,99.548
-0.540,1.333,-1.468,-481.506,-16.602,102.051
-0.564,1.406,-1.428,-440.552,-6.042,102.051
-0.477,1.515,-1.281,-396.362,-0.366,97.351
-0.355,1.483,-1.115,-333.069,-0.671,88.379
-0.269,1.377,-0.939,-253.906,-7.874,75.195
-0.275,1.306,-0.886,-191.650,-23.499,61.462
-0.267,1.263,-0.946,-142.944,-40.344,51.392
-0.312,1.179,-0.986,-93.994,-49.011,45.349
-0.332,1.060,-0.989,-46.692,-45.227,42.664
-0.281,0.911,-1.018,-17.029,-32.104,41.992
-0.280,0.833,-1.089,-2.991,-14.893,41.077
-0.262,0.765,-1.166,8.301,1.953,39.063
-0.208,0.698,-1.190,22.339,15.137,35.156
-0.128,0.612,-1.186,30.701,20.569,29.053
-0.102,0.525,-1.179,25.330,17.212,20.813
-0.132,0.495,-1.195,8.301,7.141,12.512
-0.143,0.500,-1.239,-12.207,-3.235,6.042
-0.148,0.552,-1.237,-26.123,-11.047,2.930
-0.131,0.576,-1.196,-27.161,-15.442,1.953
-0.123,0.602,-1.097,-20.203,-17.883,1.282
-0.139,0.628,-0.974,-14.282,-21.179,0.610
-0.154,0.631,-0.890,-8.972,-26.245,-0.549
-0.178,0.649,-0.841,-7.507,-31.433,-3.296
-0.200,0.663,-0.840,-9.033,-34.973,-6.042
-0.225,0.687,-0.845,-8.179,-34.790,-8.118
-0.210,0.697,-0.817,-3.845,-30.273,-9.216
-0.185,0.692,-0.764,2.441,-24.841,-10.254
-0.166,0.670,-0.722,6.531,-20.203,-10.864
-0.156,0.647,-0.716,1.648,-17.639,-10.803
-0.161,0.646,-0.746,-8.850,-16.785,-8.423
-0.146,0.662,-0.777,-15.991,-16.479,-4.395
-0.144,0.677,-0.800,-16.296,-15.503,1.343
-0.137,0.695,-0.811,-12.207,-13.550,8.057
-0.110,0.704,-0.802,-6.409,-11.414,14.160
-0.095,0.703,-0.795,0.305,-9.094,17.761
-0.097,0.708,-0.791,4.761,-7.690,18.921
-0.101,0.712,-0.801,8.362,-6.775,18.127
-0.088,0.704,-0.806,13.062,-5.676,15.686
-0.065,0.695,-0.798,15.259,-4.395,12.207
-0.054,0.690,-0.816,12.695,-3.113,8.667
-0.046,0.691,-0.848,8.911,-1.526,6.226
-0.031,0.694,-0.863,9.277,-0.610,4.639
-0.027,0.698,-0.861,12.085,-0.366,2.747
-0.026,0.710,-0.863,14.160,-3.540,1.831
-0.032,0.735,-0.866,17.822,-8.118,1.526
-0.033,0.742,-0.864,24.231,-12.878,2.014
-0.023,0.738,-0.849,32.654,-17.578,2.869
-0.029,0.721,-0.834,41.138,-20.996,3.357
-0.053,0.685,-0.815,46.265,-22.583,3.174
-0.081,0.656,-0.791,47.363,-21.606,1.160
-0.104,0.644,-0.785,42.603,-19.226,-1.709
-0.109,0.656,-0.802,33.813,-14.954,-4.944
-0.110,0.674,-0.815,27.161,-8.484,-7.935
-0.104,0.692,-0.802,24.231,-2.930,-10.559
-0.091,0.712,-0.790,23.987,-0.488,-12.451
-0.076,0.730,-0.782,25.269,-0.549,-13.794
-0.061,0.745,-0.770,27.649,-3.601,-14.587
-0.049,0.721,-0.743,30.090,-7.263,-13.794
-0.059,0.710,-0.729,27.771,-10.620,-11.475
-0.062,0.708,-0.730,21.484,-13.367,-6.531
-0.047,0.703,-0.724,16.418,-13.000,-0.610
-0.041,0.692,-0.704,11.475,-9.827,5.798
-0.061,0.694,-0.693,3.723,-6.042,11.475
-0.078,0.710,-0.706,-5.310,-3.052,15.747
-0.076,0.740,-0.734,-11.475,-0.122,18.738
-0.075,0.760,-0.741,-13.245,2.930,19.348
-0.087,0.778,-0.735,-9.644,4.211,18.677
-0.085,0.789,-0.728,-3.662,4.395,16.357
-0.068,0.795,-0.717,2.625,4.395,13.062
-0.060,0.786,-0.702,9.094,3.174,9.399
-0.062,0.769,-0.695,14.221,2.319,5.005
-0.066,0.753,-0.700,16.235,1.160,1.587
-0.062,0.725,-0.714,15.808,0.671,-0.244
-0.060,0.692,-0.717,14.465,0.610,-1.038
-0.050,0.683,-0.713,11.108,0.793,-0.793
-0.036,0.694,-0.729,5.127,0.916,1.587
-0.025,0.707,-0.755,0.000,1.343,5.554
-0.012,0.710,-0.760,-0.793,1.160,10.498
0.001,0.707,-0.758,0.854,1.282,14.893
-0.007,0.703,-0.758,0.610,-0.977,18.799
-0.021,0.698,-0.765,-0.244,-3.906,21.912
-0.032,0.702,-0.766,-1.282,-7.996,24.231
-0.046,0.703,-0.763,-1.221,-12.268,26.001
-0.060,0.704,-0.756,-0.427,-16.174,28.015
-0.065,0.705,-0.739,1.221,-19.348,29.602
-0.050,0.699,-0.718,2.991,-21.240,31.433
-0.038,0.695,-0.702,3.479,-23.193,33.203
-0.038,0.698,-0.684,3.662,-24.475,35.583
-0.035,0.702,-0.674,4.211,-25.696,38.269
-0.050,0.718,-0.688,4.456,-27.222,41.016
-0.055,0.719,-0.705,5.859,-28.381,43.213
-0.051,0.714,-0.699,11.169,-28.015,44.006
-0.054,0.697,-0.672,16.541,-28.259,42.847
-0.058,0.683,-0.652,17.212,-29.907,41.016
-0.050,0.690,-0.649,13.000,-32.715,39.246
-0.034,0.700,-0.670,8.118,-35.950,38.879
-0.042,0.719,-0.689,5.798,-39.307,40.039
-0.043,0.725,-0.687,6.836,-43.091,43.274
-0.039,0.727,-0.686,9.705,-46.875,47.913
-0.086,0.736,-0.696,11.902,-50.598,53.101
-0.112,0.723,-0.702,15.991,-53.528,57.739
"",,,,,
0.221,1.895,-0.587,-278.931,-93.567,-64.636
0.100,2.045,-0.536,-278.687,-80.994,-42.664
-0.027,2.073,-0.373,-260.864,-63.843,-31.006
-0.157,1.992,-0.179,-230.774,-45.959,-30.945
-0.185,1.895,-0.066,-205.750,-32.837,-41.321
-0.177,1.836,-0.128,-186.279,-25.269,-56.458
-0.181,1.802,-0.286,-163.696,-21.545,-69.214
-0.091,1.688,-0.419,-129.822,-17.456,-77.332
-0.010,1.612,-0.517,-99.121,-14.099,-82.275
0.015,1.521,-0.644,-85.022,-12.268,-80.811
0.064,1.417,-0.692,-72.510,-7.507,-74.036
0.081,1.393,-0.672,-61.157,-0.427,-63.416
0.094,1.367,-0.667,-58.105,6.958,-47.974
0.133,1.329,-0.667,-57.861,14.709,-29.297
0.177,1.281,-0.664,-55.969,22.400,-10.986
0.200,1.220,-0.645,-53.162,26.733,4.517
0.195,1.178,-0.674,-52.979,25.391,16.479
0.173,1.148,-0.731,-50.537,20.630,24.963
0.135,1.100,-0.771,-41.809,15.930,30.579
0.114,1.010,-0.774,-29.907,13.672,33.325
0.089,0.934,-0.743,-23.743,11.780,32.166
0.032,0.852,-0.730,-24.292,9.338,26.489
-0.043,0.823,-0.726,-29.846,7.019,16.724
-0.100,0.849,-0.736,-37.415,7.080,6.042
-0.132,0.901,-0.738,-41.321,11.292,-2.258
-0.157,0.955,-0.715,-39.490,19.897,-8.728
-0.153,1.012,-0.677,-34.119,30.457,-13.367
-0.129,1.052,-0.652,-27.588,39.795,-15.686
-0.105,1.061,-0.620,-18.311,47.485,-15.686
-0.076,1.043,-0.590,-9.033,52.002,-14.465
-0.035,1.005,-0.570,-2.380,52.490,-13.733
-0.003,0.965,-0.528,-0.061,49.377,-14.099
0.036,0.933,-0.541,-4.822,41.321,-15.320
0.063,0.930,-0.577,-10.620,30.273,-15.991
0.073,0.937,-0.610,-11.780,19.409,-15.137
0.091,0.939,-0.613,-8.179,12.146,-12.329
0.090,0.930,-0.594,-4.456,5.859,-7.324
0.072,0.916,-0.574,-1.465,0.549,-1.831
0.065,0.903,-0.568,0.610,-3.784,3.296
0.066,0.917,-0.559,0.793,-7.141,7.446
0.054,0.896,-0.545,1.648,-8.545,10.681
0.031,0.864,-0.516,3.662,-8.850,11.536
0.025,0.849,-0.498,3.601,-9.705,11.047
0.014,0.848,-0.504,0.366,-10.864,9.827
-0.008,0.850,-0.517,-4.150,-10.498,7.935
-0.030,0.848,-0.518,-6.714,-9.644,6.348
-0.046,0.848,-0.518,-7.385,-7.935,4.333
-0.051,0.852,-0.515,-8.240,-6.409,2.930
-0.049,0.859,-0.516,-8.911,-3.540,1.587
-0.046,0.864,-0.513,-8.911,-0.488,0.366
-0.044,0.856,-0.503,-7.263,2.380,-0.183
-0.032,0.849,-0.490,-5.066,5.249,-0.610
-0.005,0.848,-0.478,-4.578,6.226,-1.160
0.001,0.852,-0.472,-3.662,6.226,-1.343
-0.003,0.849,-0.466,-2.258,5.066,-0.122
0.000,0.848,-0.456,-0.854,2.686,1.221
-0.002,0.850,-0.455,-0.488,-0.244,2.991
-0.016,0.857,-0.460,-0.732,-3.357,5.310
-0.022,0.866,-0.471,-1.099,-6.042,8.118
-0.021,0.865,-0.480,0.305,-6.409,11.414
-0.022,0.856,-0.480,2.136,-5.066,13.428
-0.022,0.854,-0.481,2.991,-2.808,14.587
-0.023,0.846,-0.486,2.136,-0.793,14.771
-0.026,0.854,-0.495,1.709,1.160,14.160
-0.024,0.851,-0.493,2.563,2.563,13.672
-0.027,0.853,-0.485,5.005,3.235,13.000
-0.035,0.847,-0.474,7.751,2.930,11.963
-0.039,0.826,-0.458,10.620,1.831,11.169
-0.032,0.802,-0.443,11.536,1.160,9.888
-0.028,0.789,-0.439,9.949,0.305,7.019
-0.028,0.783,-0.441,7.446,-0.061,3.845
-0.034,0.783,-0.448,5.981,0.122,1.343
-0.042,0.784,-0.453,5.188,0.610,-0.488
-0.055,0.790,-0.454,5.188,0.854,-1.221
-0.067,0.810,-0.464,5.554,2.258,-1.099
-0.074,0.830,-0.474,4.456,2.625,-0.366
-0.072,0.857,-0.482,3.967,4.517,0.732
-0.051,0.881,-0.479,3.601,7.019,2.258
-0.027,0.903,-0.472,3.113,8.972,4.272
-0.008,0.924,-0.470,1.038,10.010,6.409
0.015,0.946,-0.481,-1.038,9.827,8.179
0.026,0.960,-0.492,-2.075,7.202,10.254
0.029,0.968,-0.500,-1.526,4.822,11.841
0.032,0.973,-0.509,0.244,1.465,13.672
0.031,0.970,-0.521,2.380,-1.099,15.137
0.030,0.959,-0.530,5.615,-2.808,16.296
0.046,0.964,-0.517,9.399,-3.418,16.174
0.044,0.921,-0.512,10.925,-3.845,15.015
0.022,0.908,-0.534,10.803,-3.967,13.611
0.016,0.899,-0.538,12.268,-3.052,11.169
-0.000,0.880,-0.537,14.221,-1.526,8.179
-0.015,0.861,-0.537,15.625,0.305,4.883
-0.023,0.843,-0.532,17.212,2.991,1.526
-0.020,0.833,-0.519,18.372,5.554,-1.526
-0.011,0.821,-0.503,16.785,7.935,-4.028
-0.003,0.813,-0.494,13.306,10.071,-5.737
0.002,0.810,-0.492,8.911,10.864,-6.958
-0.003,0.809,-0.489,4.700,10.742,-7.507
-0.007,0.812,-0.484,1.221,9.888,-7.080
-0.015,0.820,-0.482,-2.014,7.629,-6.042
-0.022,0.822,-0.480,-4.761,5.493,-3.845
-0.031,0.821,-0.474,-7.324,3.723,-0.671
-0.040,0.820,-0.474,-9.888,2.319,3.113
-0.046,0.817,-0.473,-13.184,1.587,7.324
-0.063,0.814,-0.474,-15.564,1.892,12.268
-0.077,0.822,-0.481,-18.188,3.418,17.700
-0.090,0.833,-0.495,-20.874,5.432,24.170
-0.106,0.837,-0.502,-21.973,8.911,31.128
-0.126,0.819,-0.508,-20.203,13.611,37.415
-0.142,0.805,-0.502,-18.494,18.433,41.870
-0.148,0.797,-0.497,-17.883,22.400,44.189
-0.151,0.789,-0.496,-17.090,26.245,44.312
-0.147,0.774,-0.487,-16.174,28.870,42.480
-0.138,0.746,-0.468,-15.747,29.968,39.307
-0.129,0.726,-0.457,-17.334,28.503,35.095
-0.132,0.732,-0.471,-21.606,25.085,31.128
-0.139,0.751,-0.501,-26.123,21.484,29.175
-0.135,0.785,-0.540,-27.771,20.874,30.457
-0.113,0.819,-0.574,-26.794,22.461,33.813
"",,,,,
0.906,0.993,1.059,-337.036,187.500,-36.560
0.890,1.196,1.084,-344.727,174.561,-37.476
0.864,1.323,1.090,-346.619,160.095,-34.668
0.806,1.448,1.070,-346.252,141.296,-32.410
0.709,1.594,0.984,-345.154,118.103,-32.715
0.592,1.737,0.830,-336.731,94.910,-34.363
0.499,1.807,0.706,-315.613,75.562,-35.889
0.430,1.785,0.636,-285.339,61.157,-38.635
0.374,1.744,0.552,-255.737,51.270,-44.434
0.349,1.714,0.516,-228.821,46.875,-53.284
0.363,1.657,0.520,-205.566,46.326,-63.232
0.367,1.598,0.524,-191.895,45.898,-72.571
0.382,1.509,0.457,-192.627,43.945,-80.017
0.432,1.695,0.520,-200.317,39.673,-85.876
0.388,1.717,0.398,-208.923,30.518,-85.327
0.347,1.773,0.288,-216.125,20.996,-75.867
0.337,1.820,0.252,-203.735,17.761,-62.012
0.317,1.769,0.206,-187.622,16.724,-45.471
0.288,1.714,0.127,-168.274,18.433,-31.555
0.251,1.675,0.052,-148.254,20.874,-21.179
0.249,1.660,-0.027,-129.822,25.269,-13.184
0.236,1.622,-0.094,-111.633,30.090,-6.165
0.212,1.568,-0.152,-87.952,36.377,0.000
0.214,1.480,-0.145,-61.523,42.358,4.761
0.264,1.307,-0.048,-40.527,45.959,6.409
0.347,1.173,0.011,-33.386,41.870,1.465
0.417,1.135,0.010,-41.992,31.372,-9.094
0.438,1.184,-0.062,-62.988,18.982,-20.691
0.427,1.239,-0.188,-81.787,7.874,-26.733
0.413,1.310,-0.306,-89.417,0.793,-26.184
0.370,1.312,-0.405,-79.285,-1.831,-21.118
0.330,1.263,-0.460,-53.894,-1.038,-14.404
0.306,1.209,-0.502,-23.254,2.075,-8.362
0.269,1.155,-0.535,21.240,11.841,-7.385
0.246,0.972,-0.417,74.585,31.494,-10.315
0.249,0.997,-0.390,97.107,38.940,-7.874
0.333,0.934,-0.268,118.835,48.401,-5.432
0.379,0.929,-0.123,119.385,55.969,-1.343
0.379,0.904,0.003,91.187,55.542,5.371
0.342,0.906,-0.000,44.617,45.959,13.733
0.385,0.911,0.006,-10.925,29.724,20.447
0.399,0.997,-0.221,-64.392,6.165,29.053
0.395,1.123,-0.367,-75.439,-10.132,32.654
0.354,1.155,-0.403,-42.603,-16.846,32.288
0.297,1.117,-0.329,3.662,-16.785,28.259
0.235,1.047,-0.216,39.673,-17.700,20.813
0.182,1.006,-0.136,54.504,-21.545,10.864
0.201,0.942,-0.099,54.749,-20.996,-0.671
0.239,0.919,0.157,29.846,-28.931,-16.968
0.277,0.891,-0.322,-16.479,-53.650,-39.734
0.347,1.086,-0.322,-4.211,-46.387,-53.955
0.299,1.073,-0.279,28.870,-26.428,-65.613
0.224,0.958,-0.161,49.500,-7.202,-66.833
0.257,0.951,-0.079,50.171,6.348,-60.791
0.296,0.965,-0.067,35.461,13.611,-50.354
0.279,0.962,-0.124,16.235,17.029,-40.283
0.272,0.964,-0.171,4.639,20.325,-32.532
0.296,0.981,-0.191,1.526,24.780,-27.283
0.309,0.984,-0.192,0.000,27.954,-23.621
0.341,0.982,-0.206,-5.127,29.053,-19.104
0.403,1.022,-0.244,-12.085,28.137,-13.062
0.414,1.051,-0.253,-13.916,26.855,-6.348
0.381,1.070,-0.242,-13.794,24.841,-1.099
0.361,1.056,-0.281,-15.259,17.395,1.099
0.345,1.064,-0.315,-12.329,8.667,-0.610
0.329,1.056,-0.338,-0.854,-1.587,-4.883
0.310,1.049,-0.343,17.090,-11.719,-10.986
0.294,1.045,-0.324,36.743,-22.156,-16.785
0.286,1.042,-0.299,54.993,-31.555,-20.447
0.266,0.984,-0.240,70.801,-38.818,-22.583
0.276,0.960,-0.222,80.017,-45.593,-26.001
0.298,0.925,-0.189,86.182,-49.683,-29.602
0.303,0.914,-0.157,88.013,-50.598,-32.715
0.302,0.883,-0.123,84.839,-49.988,-32.898
0.291,0.866,-0.083,77.515,-46.143,-30.640
0.265,0.866,-0.063,66.223,-41.992,-26.306
0.254,0.843,-0.039,53.711,-36.072,-20.020
0.264,0.845,-0.007,42.175,-28.625,-14.160
0.286,0.847,0.020,31.128,-19.287,-10.132
0.298,0.849,0.032,19.470,-9.583,-7.935
0.323,0.880,0.041,5.920,-0.183,-7.629
0.338,0.905,0.038,-7.751,7.874,-8.606
0.350,0.887,0.023,-18.005,13.123,-10.986
0.356,0.907,0.004,-23.560,17.029,-15.808
0.367,0.918,-0.005,-26.123,16.479,-20.691
0.394,0.925,-0.039,-24.658,14.038,-25.452
0.417,0.948,-0.044,-21.790,10.010,-28.687
0.414,0.931,-0.043,-14.404,3.296,-29.968
0.409,0.921,-0.031,-2.075,-1.282,-31.372
0.412,0.920,-0.009,11.658,-7.324,-31.128
0.416,0.916,0.016,21.851,-12.146,-30.396
0.425,0.901,0.031,29.419,-15.015,-28.381
0.445,0.942,0.072,30.884,-18.433,-26.672
0.443,0.867,0.060,34.180,-18.066,-23.804
0.428,0.851,0.082,31.555,-19.409,-23.315
0.433,0.839,0.100,23.437,-16.174,-22.827
0.424,0.868,0.076,10.498,-15.015,-23.193
0.430,0.856,0.064,0.732,-16.663,-21.423
0.439,0.840,0.059,-2.136,-11.963,-21.301
0.444,0.840,0.041,-4.028,-7.324,-23.254
0.470,0.822,0.022,-6.042,-6.653,-23.804
0.480,0.872,0.037,-8.911,0.244,-25.452
0.519,0.857,0.012,-14.587,2.930,-24.292
0.528,0.848,0.005,-16.724,7.568,-21.484
0.536,0.863,0.016,-20.752,10.254,-18.799
0.554,0.822,-0.027,-25.635,12.146,-16.174
0.533,0.891,0.034,-30.273,16.724,-15.930
0.532,0.907,-0.016,-33.264,20.081,-15.198
0.565,0.899,-0.033,-34.668,20.386,-12.695
0.600,0.921,-0.004,-37.903,19.165,-10.864
0.623,0.914,0.001,-38.757,18.677,-9.460
0.629,0.928,0.006,-40.161,20.996,-9.399
0.635,0.933,-0.014,-43.518,18.311,-8.606
0.629,0.943,-0.029,-43.091,14.099,-6.348
0.602,0.949,-0.060,-36.743,9.827,-3.296
0.578,0.962,-0.077,-26.978,9.338,-0.183
0.557,0.924,-0.062,-19.043,5.432,3.906
0.537,0.890,-0.022,-13.306,6.409,6.470
0.529,0.866,0.005,-16.479,9.827,5.981
"",,,,,
-0.301,2.018,-0.391,-237.915,-152.588,-137.634
-0.201,2.191,-0.333,-223.083,-130.554,-139.709
-0.180,2.356,-0.368,-222.900,-119.995,-134.827
-0.161,2.482,-0.421,-219.910,-118.530,-122.131
-0.145,2.557,-0.401,-201.050,-118.896,-101.990
-0.118,2.554,-0.316,-175.049,-119.019,-77.942
-0.125,2.464,-0.248,-151.001,-119.141,-54.138
-0.167,2.305,-0.195,-127.014,-119.019,-34.973
-0.196,2.087,-0.157,-97.412,-115.295,-21.912
-0.214,1.820,-0.148,-65.369,-111.694,-15.198
-0.214,1.583,-0.205,-37.842,-107.178,-14.038
-0.195,1.407,-0.298,-16.785,-100.952,-15.381
-0.155,1.277,-0.370,1.343,-92.407,-16.052
-0.118,1.134,-0.429,17.639,-83.557,-15.076
-0.094,1.036,-0.483,28.564,-78.064,-13.062
-0.070,1.012,-0.528,32.776,-76.050,-8.606
-0.027,1.000,-0.557,34.668,-77.271,-0.916
0.032,1.016,-0.559,36.865,-79.956,10.742
0.086,1.042,-0.550,36.316,-85.205,25.574
0.099,1.072,-0.576,32.349,-93.262,43.823
0.040,1.127,-0.634,27.466,-102.173,64.880
-0.007,1.152,-0.686,31.372,-105.896,87.280
-0.010,1.143,-0.684,49.622,-105.042,106.506
-0.037,1.146,-0.600,73.853,-98.083,117.737
-0.089,1.121,-0.510,93.262,-88.257,121.277
-0.147,1.073,-0.465,105.164,-75.500,117.615
-0.156,1.043,-0.470,107.300,-58.228,108.398
-0.172,1.006,-0.481,102.417,-36.499,97.046
-0.186,0.969,-0.474,98.938,-14.526,84.778
-0.134,0.965,-0.444,95.764,4.700,73.608
-0.078,1.018,-0.406,93.262,19.226,63.843
-0.048,1.057,-0.375,92.651,27.954,56.396
-0.036,1.071,-0.342,93.628,30.640,51.392
-0.017,1.061,-0.290,97.534,28.992,47.180
0.001,1.059,-0.241,101.563,23.499,42.969
0.008,1.057,-0.207,101.196,14.832,38.818
0.012,1.071,-0.208,95.642,4.150,35.156
0.018,1.098,-0.235,92.407,-4.761,31.982
0.018,1.105,-0.266,97.412,-12.146,30.945
-0.013,1.079,-0.245,109.070,-16.968,31.128
-0.054,1.035,-0.202,121.765,-20.508,31.616
-0.087,0.986,-0.150,129.272,-22.339,30.884
-0.112,0.968,-0.115,129.272,-22.583,28.564
-0.112,0.870,-0.084,121.765,-20.691,26.550
-0.132,0.878,-0.046,109.497,-16.174,22.888
-0.124,0.943,-0.027,92.163,-8.179,17.334
-0.127,1.046,-0.026,69.702,0.610,13.916
-0.146,1.085,-0.048,54.260,13.489,13.916
-0.142,1.054,-0.046,50.781,27.405,15.869
-0.132,1.013,-0.027,54.626,40.955,17.212
-0.133,0.977,0.017,57.556,52.124,16.174
-0.133,0.928,0.068,55.298,59.265,13.123
-0.335,0.887,0.097,48.950,60.974,8.301
-0.378,0.818,0.071,40.161,58.716,8.667
0.067,1.112,0.108,29.785,56.152,16.968
-0.269,0.921,0.037,18.677,57.434,24.597
-0.127,1.005,0.060,11.108,56.641,44.373
-0.121,1.041,0.084,2.014,57.312,66.772
-0.089,1.065,0.103,-11.658,56.885,91.125
-0.138,1.079,0.069,-30.273,56.763,114.136
-0.238,1.032,0.023,-45.654,61.279,125.549
-0.394,1.089,0.013,-52.979,68.420,123.291
-0.421,0.940,0.014,-50.781,72.449,113.342
-0.363,0.958,-0.008,-45.349,69.336,98.206
-0.333,0.943,-0.014,-38.147,63.782,76.660
-0.343,0.897,0.004,-28.442,54.749,56.824
-0.364,0.792,-0.030,-18.494,42.358,40.344
-0.401,0.958,-0.202,-1.221,28.442,19.653
-0.445,1.133,-0.336,25.696,15.259,-2.808
-0.439,1.166,-0.283,82.031,6.287,-22.888
-0.408,1.121,-0.026,151.733,-3.540,-40.833
-0.355,0.995,0.223,197.021,-20.508,-56.885
-0.308,1.001,0.369,196.960,-39.856,-68.054
-0.236,0.919,0.474,160.400,-52.551,-69.519
-0.213,0.814,0.463,110.718,-55.542,-63.538
-0.267,0.807,0.399,58.167,-50.293,-51.575
-0.334,0.793,0.311,19.897,-40.466,-34.180
-0.367,0.759,0.272,1.160,-26.978,-15.015
-0.390,0.736,0.281,-11.047,-14.221,1.526
-0.403,0.729,0.279,-28.931,-3.357,13.000
-0.420,0.759,0.281,-52.551,5.066,19.775
-0.391,0.656,0.610,-85.510,7.141,21.545
-0.377,0.856,0.008,-147.339,-23.926,9.705
-0.359,0.958,-0.176,-149.048,-43.762,-15.015
-0.302,0.993,-0.082,-109.680,-38.818,-36.499
-0.230,1.029,-0.047,-73.792,-35.583,-44.861
-0.203,1.072,-0.077,-51.575,-33.569,-45.471
-0.230,1.046,-0.032,-31.067,-27.771,-43.762
-0.284,1.004,-0.038,-17.578,-22.827,-47.668
-0.307,1.015,0.004,-6.592,-14.343,-56.946
-0.271,1.048,0.087,-4.272,-5.493,-63.599
-0.212,1.074,0.120,-7.568,-0.427,-63.354
-0.218,1.095,0.113,-9.644,1.099,-59.143
-0.228,1.102,0.110,-4.333,1.709,-55.176
-0.218,1.099,0.152,6.348,1.404,-55.542
-0.213,1.086,0.171,18.494,-1.404,-58.960
-0.197,1.071,0.176,32.959,-5.188,-64.880
-0.160,1.077,0.184,50.781,-9.033,-71.899
-0.109,1.078,0.190,71.899,-13.000,-76.233
-0.097,1.073,0.221,98.083,-14.954,-77.454
-0.060,1.046,0.251,127.136,-15.503,-75.134
-0.036,0.737,0.572,137.329,-9.033,-62.744
-0.143,0.946,0.460,80.139,7.385,-30.273
-0.115,0.862,0.370,63.904,12.634,-15.198
-0.216,0.768,0.275,76.355,14.648,-16.602
-0.216,0.786,0.213,72.754,18.921,-23.437
-0.203,0.344,0.274,60.669,29.114,-29.175
-0.174,0.122,0.297,56.091,38.513,-47.302
-0.045,0.207,0.227,43.213,47.058,-81.116
0.099,0.352,0.247,30.518,61.035,-111.389
0.271,0.579,0.357,32.227,73.608,-134.094
0.409,0.830,0.516,47.791,78.430,-143.677
0.425,1.101,0.618,77.454,72.266,-141.235
0.304,1.150,0.695,112.183,60.425,-127.319
0.211,1.046,0.644,127.930,41.748,-110.046
0.236,0.948,0.543,130.493,26.794,-98.633
0.238,0.866,0.519,131.104,21.301,-93.018
0.223,0.790,0.568,124.512,19.287,-91.003
0.249,0.694,0.591,112.488,12.878,-89.539
"",,,,,
1.017,0.728,0.800,-18.372,38.818,47.119
1.025,0.679,0.849,-4.150,41.199,56.213
1.031,0.648,0.895,6.470,40.344,62.561
1.036,0.630,0.929,13.550,36.682,66.345
1.041,0.610,0.942,17.090,29.541,69.214
1.041,0.584,0.935,16.418,19.653,72.388
1.035,0.532,0.897,14.282,8.789,75.806
1.039,0.459,0.856,10.742,-0.610,79.163
1.032,0.406,0.823,6.348,-7.507,80.383
1.021,0.379,0.795,5.859,-12.146,78.613
1.014,0.382,0.768,9.949,-15.259,74.585
1.032,0.410,0.754,19.531,-17.090,70.801
1.044,0.454,0.746,31.494,-18.188,67.444
1.040,0.505,0.749,44.006,-18.555,66.162
1.032,0.538,0.746,56.824,-19.714,67.444
1.037,0.545,0.750,68.542,-21.973,71.045
1.029,0.536,0.738,75.745,-25.879,75.684
1.009,0.521,0.710,76.843,-30.823,79.590
0.999,0.497,0.667,72.449,-35.095,82.886
0.987,0.460,0.617,65.918,-36.987,84.412
0.963,0.422,0.583,56.702,-36.316,84.106
0.942,0.405,0.554,48.096,-33.325,82.031
0.922,0.431,0.563,45.959,-28.137,78.186
0.892,0.485,0.592,50.354,-22.339,74.402
0.876,0.550,0.640,59.570,-17.517,73.364
0.855,0.607,0.680,70.862,-15.137,74.463
0.851,0.640,0.703,78.674,-14.832,77.759
0.869,0.653,0.714,79.041,-14.893,82.581
0.871,0.625,0.700,74.829,-16.479,88.745
0.859,0.582,0.669,68.604,-18.127,94.238
0.847,0.493,0.630,61.829,-18.005,98.694
0.810,0.390,0.587,54.077,-17.456,102.539
0.759,0.292,0.513,49.194,-15.869,104.614
0.697,0.222,0.447,48.889,-12.207,104.919
0.632,0.176,0.443,52.979,-5.615,102.295
0.593,0.109,0.483,56.335,2.502,98.328
0.583,0.059,0.551,54.993,9.766,93.933
0.578,0.032,0.617,55.664,15.137,87.280
0.579,0.042,0.678,59.143,18.494,77.759
0.546,0.108,0.759,59.265,21.973,67.322
0.499,0.203,0.852,56.152,25.146,57.922
0.484,0.299,0.937,49.133,26.855,51.636
0.491,0.395,0.998,37.659,23.804,48.767
0.501,0.460,1.015,25.269,15.930,48.889
0.501,0.478,0.981,12.390,5.188,50.842
0.476,0.452,0.913,-0.732,-5.188,54.626
0.446,0.400,0.824,-10.559,-14.160,58.472
0.413,0.333,0.747,-17.700,-18.372,59.570
0.418,0.282,0.695,-25.330,-18.005,57.800
0.426,0.276,0.668,-34.180,-15.320,53.345
0.406,0.321,0.665,-42.419,-12.451,47.974
0.369,0.391,0.693,-46.753,-9.155,43.213
0.351,0.448,0.744,-48.767,-7.141,40.466
0.357,0.505,0.801,-50.781,-7.202,40.405
0.361,0.553,0.838,-51.941,-9.583,43.030
0.356,0.584,0.845,-53.406,-14.038,46.936
0.349,0.592,0.822,-57.312,-20.386,52.124
0.349,0.583,0.774,-62.744,-26.978,58.105
0.339,0.548,0.715,-67.688,-31.555,63.904
0.326,0.489,0.657,-71.960,-34.851,68.481
0.304,0.429,0.609,-71.655,-35.767,71.777
0.271,0.374,0.589,-67.566,-35.400,72.693
0.272,0.323,0.580,-61.096,-33.203,71.655
0.284,0.295,0.585,-54.993,-31.067,68.726
0.255,0.313,0.609,-48.950,-28.809,63.782
0.214,0.375,0.637,-41.626,-26.550,57.861
0.198,0.457,0.685,-30.701,-25.330,52.856
0.204,0.543,0.741,-18.677,-26.184,48.889
0.203,0.606,0.786,-13.184,-28.442,47.852
0.193,0.647,0.816,-15.015,-33.020,49.805
0.192,0.652,0.835,-20.142,-39.673,53.528
0.194,0.642,0.848,-25.696,-46.570,57.800
0.181,0.628,0.852,-31.433,-54.382,61.890
0.175,0.578,0.848,-33.142,-63.171,66.040
0.199,0.511,0.805,-27.893,-72.327,69.153
0.225,0.441,0.729,-18.738,-80.688,70.190
0.221,0.395,0.632,-8.545,-87.036,68.542
0.183,0.386,0.537,2.319,-89.905,65.125
0.152,0.409,0.466,12.878,-89.172,60.791
0.105,0.460,0.436,16.968,-83.618,56.580
0.054,0.537,0.442,12.817,-75.684,54.443
0.028,0.599,0.482,7.324,-68.115,54.565
0.041,0.645,0.530,5.737,-62.134,56.396
0.043,0.703,0.573,9.888,-58.655,59.143
0.044,0.762,0.628,20.325,-57.861,63.538
0.064,0.799,0.656,32.776,-58.411,70.068
0.090,0.809,0.650,47.913,-61.340,78.247
0.091,0.788,0.625,63.843,-65.186,87.219
0.100,0.745,0.586,74.707,-68.359,96.924
0.130,0.660,0.526,84.473,-71.350,106.140
0.132,0.561,0.474,92.224,-73.669,113.098
0.076,0.446,0.411,93.079,-74.524,117.493
-0.000,0.364,0.333,90.149,-72.754,119.080
-0.055,0.335,0.303,86.426,-66.711,118.103
-0.107,0.327,0.319,84.961,-56.335,115.479
-0.140,0.329,0.386,82.031,-42.969,111.816
-0.149,0.347,0.455,80.505,-31.433,109.009
-0.162,0.386,0.540,85.938,-22.461,106.018
-0.176,0.419,0.617,93.384,-15.808,104.736
-0.163,0.413,0.673,101.196,-12.939,105.713
-0.156,0.389,0.721,107.300,-11.902,107.727
-0.157,0.378,0.766,109.253,-11.902,110.291
-0.187,0.353,0.797,106.201,-14.038,113.464
-0.216,0.282,0.810,100.342,-16.602,116.638
-0.245,0.184,0.809,96.741,-18.799,118.225
-0.266,0.086,0.797,90.881,-19.409,117.432
-0.285,0.005,0.786,85.388,-19.714,114.075
-0.317,-0.055,0.792,85.999,-18.677,108.032
-0.326,-0.085,0.792,91.003,-16.846,100.159
-0.342,-0.079,0.804,94.543,-15.686,90.942
-0.358,-0.040,0.806,93.506,-14.343,81.909
-0.357,0.038,0.811,89.600,-12.817,73.608
-0.360,0.125,0.815,86.548,-11.597,67.749
-0.357,0.194,0.840,84.717,-10.376,65.125
-0.333,0.242,0.848,87.708,-10.071,66.223
-0.322,0.251,0.838,93.994,-10.376,69.885
-0.319,0.245,0.804,102.051,-10.193,75.012
-0.317,0.219,0.763,111.267,-9.827,80.017
-0.316,0.164,0.743,118.286,-7.935,84.900
"",,,,,
1.918,0.796,-0.439,-572.144,-110.107,-561.951
2.348,0.832,-0.508,-599.487,-166.626,-559.204
2.625,0.862,-0.610,-607.788,-222.473,-554.016
2.811,0.953,-0.717,-605.957,-276.550,-544.617
2.992,1.052,-0.856,-590.454,-326.843,-528.992
3.160,1.214,-0.995,-559.448,-368.164,-509.033
3.206,1.438,-1.161,-497.925,-398.926,-480.164
3.204,1.677,-1.323,-406.433,-415.039,-441.650
3.099,1.911,-1.498,-316.223,-416.626,-393.066
2.887,2.039,-1.714,-240.540,-405.273,-334.351
2.651,2.005,-1.897,-165.100,-378.113,-273.010
2.429,1.942,-2.003,-86.121,-337.341,-218.628
2.208,1.847,-2.005,-22.034,-288.635,-168.640
2.025,1.755,-1.847,14.343,-236.755,-123.718
1.845,1.630,-1.556,42.236,-187.866,-84.473
1.658,1.429,-1.317,63.110,-147.949,-50.842
1.478,1.211,-1.140,61.401,-112.732,-23.621
1.301,1.001,-1.066,47.791,-78.308,-4.761
1.180,0.786,-0.955,37.476,-42.236,6.409
1.098,0.588,-0.812,31.372,-7.935,10.437
1.102,0.418,-0.569,26.489,21.362,8.423
1.143,0.332,-0.375,20.325,41.626,3.601
1.159,0.338,-0.389,13.794,54.138,-0.366
1.173,0.352,-0.432,19.409,67.200,-1.770
1.187,0.351,-0.402,39.795,83.252,-0.122
1.220,0.320,-0.276,67.566,98.816,4.211
1.264,0.266,-0.105,95.642,109.253,8.423
1.309,0.191,0.023,117.676,112.000,10.681
1.344,0.116,0.049,133.057,110.596,8.911
1.312,0.025,0.040,138.184,108.826,3.113
1.222,0.032,0.037,127.319,106.750,-5.249
1.160,0.070,0.085,108.337,105.774,-13.611
1.142,0.049,0.255,89.966,103.210,-21.545
1.137,0.069,0.410,78.064,94.055,-31.677
1.133,0.110,0.501,72.021,77.454,-42.053
1.136,0.160,0.541,69.336,56.641,-50.476
1.125,0.214,0.515,71.045,34.363,-57.434
1.108,0.275,0.445,72.998,13.184,-61.646
1.090,0.325,0.336,72.449,-5.310,-64.087
1.082,0.348,0.208,68.726,-20.752,-63.965
1.080,0.331,0.080,61.829,-32.776,-62.012
1.077,0.291,-0.005,54.443,-39.246,-59.265
1.067,0.243,-0.061,47.485,-42.297,-57.495
1.048,0.204,-0.114,43.152,-43.335,-58.167
1.034,0.203,-0.166,41.199,-43.579,-60.608
1.017,0.226,-0.213,39.856,-42.847,-63.843
1.012,0.267,-0.241,36.194,-40.344,-66.345
1.017,0.299,-0.248,26.794,-36.804,-66.223
1.029,0.333,-0.238,8.362,-33.203,-62.927
1.044,0.347,-0.226,-10.620,-30.579,-58.350
1.065,0.353,-0.212,-21.484,-28.198,-54.565
1.078,0.366,-0.203,-24.231,-27.222,-51.575
1.045,0.355,-0.208,-23.010,-26.794,-47.607
1.002,0.339,-0.207,-22.400,-25.024,-42.725
0.992,0.338,-0.194,-22.766,-21.851,-37.170
1.000,0.345,-0.171,-21.851,-19.287,-31.494
1.013,0.362,-0.151,-18.555,-16.724,-25.635
1.018,0.365,-0.135,-12.878,-16.052,-19.531
1.023,0.353,-0.124,-5.432,-14.954,-13.611
1.038,0.350,-0.119,0.793,-14.954,-8.972
1.057,0.337,-0.131,5.615,-15.503,-5.249
1.066,0.299,-0.149,7.935,-17.456,-1.404
1.077,0.266,-0.170,8.057,-17.151,1.221
1.090,0.246,-0.190,7.568,-16.724,2.258
1.112,0.226,-0.215,7.141,-14.465,2.625
1.120,0.202,-0.239,3.174,-12.085,2.502
1.120,0.183,-0.267,-4.272,-9.277,2.441
1.112,0.164,-0.302,-11.353,-5.188,1.953
1.095,0.158,-0.334,-15.686,-0.549,0.916
1.078,0.158,-0.365,-15.320,5.554,-0.610
1.072,0.176,-0.390,-10.071,13.245,-2.563
1.069,0.210,-0.408,-1.587,22.400,-4.272
1.068,0.254,-0.416,6.958,31.311,-5.859
1.070,0.284,-0.406,14.709,40.344,-6.348
1.065,0.302,-0.384,21.179,48.767,-5.859
1.055,0.313,-0.347,28.259,56.580,-5.554
1.043,0.294,-0.289,34.180,62.805,-5.188
1.040,0.253,-0.202,37.415,67.139,-4.761
1.317,0.345,0.337,37.598,68.115,-5.615
1.125,0.459,0.225,33.691,58.350,-3.296
0.992,0.370,0.277,24.170,45.288,5.310
1.019,0.302,0.369,15.625,29.358,11.108
1.055,0.218,0.451,8.667,11.292,13.550
0.925,0.126,0.136,1.282,-7.751,13.489
0.934,0.137,-0.176,-6.348,-16.968,10.193
0.989,0.226,-0.151,-8.423,-12.756,5.615
0.971,0.291,-0.163,-3.296,-11.353,3.296
0.969,0.312,-0.147,2.380,-10.986,3.113
0.968,0.297,-0.139,6.165,-11.169,4.150
0.971,0.276,-0.141,8.606,-11.475,4.944
0.971,0.263,-0.141,9.949,-10.925,4.761
0.975,0.267,-0.138,9.460,-10.498,3.723
0.982,0.274,-0.142,7.874,-10.620,2.563
0.988,0.269,-0.143,7.263,-9.399,1.343
0.994,0.251,-0.144,5.798,-8.972,0.061
1.001,0.235,-0.149,4.578,-7.874,-1.404
1.010,0.226,-0.143,4.333,-6.653,-2.869
1.007,0.218,-0.145,5.554,-4.883,-4.211
1.009,0.214,-0.144,6.348,-2.319,-5.737
1.008,0.214,-0.160,5.066,0.244,-6.836
1.015,0.221,-0.162,2.136,1.953,-7.935
1.012,0.234,-0.158,0.549,3.906,-8.728
1.013,0.236,-0.151,1.770,6.104,-9.094
1.016,0.237,-0.152,5.371,8.789,-8.606
1.026,0.243,-0.159,10.742,11.536,-8.667
1.033,0.250,-0.167,17.334,14.038,-8.240
1.035,0.242,-0.169,23.499,16.968,-7.446
1.046,0.229,-0.168,28.687,19.836,-6.775
1.048,0.223,-0.169,33.386,23.682,-6.287
1.076,0.316,-0.112,36.438,26.611,-5.432
1.173,0.292,-0.013,38.574,27.588,-3.540
1.177,0.288,-0.031,38.452,23.621,-1.587
1.119,0.255,-0.059,34.607,19.104,-0.244
1.095,0.255,-0.078,30.945,15.015,-0.183
1.096,0.274,-0.084,28.503,11.047,-0.732
1.096,0.307,-0.089,26.184,7.385,-0.977
1.093,0.353,-0.096,25.757,3.967,-0.793
1.084,0.404,-0.106,27.832,0.671,0.366
1.076,0.447,-0.114,33.386,-1.404,2.991
"",,,,,
1.401,0.444,1.196,-180.115,95.947,-355.530
1.494,0.526,1.199,-125.366,52.490,-371.887
1.535,0.578,1.219,-60.791,13.306,-384.460
1.510,0.595,1.199,-9.766,-16.541,-395.203
1.410,0.749,1.020,19.470,-33.630,-404.846
1.396,0.821,0.912,49.622,-30.273,-411.255
1.475,0.824,0.927,61.218,-16.541,-415.649
1.531,0.952,0.946,63.232,-0.610,-424.255
1.465,1.420,0.909,60.608,18.921,-436.829
1.523,1.906,1.161,43.762,37.903,-441.833
1.598,2.401,1.520,21.973,45.837,-430.359
1.572,2.748,1.692,-6.653,37.170,-396.606
1.557,2.775,1.953,-34.119,15.808,-344.116
1.578,2.487,2.125,-46.326,-18.372,-286.499
1.527,2.190,2.150,-52.612,-60.730,-233.887
1.566,1.872,2.074,-70.923,-103.882,-182.373
1.641,1.567,1.897,-98.633,-144.226,-131.531
1.687,1.238,1.661,-119.446,-178.894,-83.435
1.676,0.912,1.423,-122.253,-207.336,-40.894
1.654,0.648,1.156,-105.164,-231.018,-7.935
1.657,0.454,0.921,-79.590,-249.939,13.611
1.639,0.355,0.736,-55.359,-262.268,25.085
1.606,0.308,0.584,-30.579,-268.860,27.771
1.574,0.284,0.452,-10.010,-271.240,24.231
1.543,0.254,0.342,-2.747,-269.592,16.357
1.465,0.199,0.250,-9.827,-265.747,6.165
1.318,0.183,0.190,-28.381,-260.559,-3.601
1.166,0.190,0.164,-44.678,-253.845,-12.451
1.038,0.180,0.158,-42.664,-244.568,-20.569
0.938,0.170,0.152,-25.208,-232.849,-27.283
0.858,0.217,0.136,-0.488,-219.238,-33.875
0.833,0.229,0.106,32.837,-203.064,-42.236
0.819,0.206,0.085,60.120,-185.730,-51.331
0.788,0.209,0.075,68.665,-168.335,-61.768
0.723,0.232,0.075,70.374,-150.513,-72.510
0.638,0.241,0.087,73.120,-130.798,-82.764
0.573,0.392,0.112,76.904,-108.887,-92.712
0.532,0.354,0.134,80.750,-86.548,-99.182
0.528,0.359,0.180,89.294,-64.636,-106.689
0.525,0.389,0.215,103.943,-41.382,-118.408
0.505,0.403,0.261,118.713,-15.198,-130.859
0.496,0.407,0.304,128.967,12.329,-142.273
0.508,0.445,0.371,123.779,40.710,-152.283
0.556,0.520,0.459,106.079,67.627,-159.485
0.603,0.597,0.548,90.759,91.675,-164.429
0.631,0.664,0.641,77.698,110.840,-165.588
0.657,0.724,0.734,65.002,124.878,-160.950
0.692,0.765,0.827,59.753,135.742,-151.917
0.742,0.779,0.907,64.636,142.761,-138.611
0.795,0.760,0.962,76.965,145.569,-122.009
0.830,0.755,0.997,88.623,144.104,-103.516
0.840,0.745,1.019,103.088,140.076,-84.534
0.832,0.721,1.023,123.413,134.216,-64.331
0.828,0.675,1.020,145.813,127.563,-43.457
0.841,0.617,1.007,163.879,120.544,-22.644
0.883,0.524,1.000,178.162,112.854,-3.906
0.906,0.418,0.970,187.561,104.919,13.855
0.926,0.278,0.951,190.735,97.473,30.273
0.929,0.143,0.925,185.974,89.417,43.579
0.938,-0.009,0.898,177.246,80.444,52.673
0.936,-0.131,0.863,165.955,70.068,56.580
0.933,-0.207,0.833,155.823,59.631,54.504
0.916,-0.246,0.795,152.771,50.049,47.607
0.884,-0.251,0.771,156.189,42.664,38.940
0.844,-0.228,0.773,160.034,39.185,29.663
0.829,-0.226,0.793,161.377,36.987,21.667
0.847,-0.232,0.831,154.724,34.668,15.564
0.866,-0.243,0.849,142.212,29.907,9.888
0.866,-0.246,0.836,124.573,22.766,4.150
0.866,-0.225,0.792,104.248,14.343,-1.709
0.878,-0.166,0.725,85.999,7.568,-7.996
0.897,-0.092,0.653,73.853,2.319,-13.123
0.903,-0.035,0.593,69.397,-0.305,-15.686
0.873,0.032,0.557,68.298,0.488,-16.479
0.857,0.074,0.548,65.918,3.052,-15.930
0.874,0.079,0.554,58.838,6.470,-13.428
0.896,0.075,0.564,50.903,8.118,-9.338
0.912,0.070,0.559,47.913,7.507,-6.104
0.922,0.068,0.547,48.706,5.554,-3.540
0.935,0.066,0.538,48.218,3.601,-1.404
0.934,0.065,0.532,45.044,2.686,1.099
0.924,0.068,0.541,40.955,2.747,2.991
0.909,0.055,0.564,39.307,3.113,4.700
0.909,0.029,0.607,38.269,3.540,6.531
0.931,0.005,0.649,37.292,2.869,8.057
0.950,-0.023,0.678,37.537,0.305,9.644
0.942,-0.055,0.691,40.039,-3.967,10.986
0.912,-0.085,0.684,43.335,-8.789,11.292
0.883,-0.118,0.674,42.725,-13.550,10.925
0.873,-0.147,0.670,36.377,-17.273,9.399
0.896,-0.149,0.676,25.024,-19.104,6.958
0.892,-0.123,0.687,10.742,-20.081,4.761
0.854,-0.098,0.686,-2.319,-22.095,3.662
0.867,-0.060,0.657,-12.878,-24.658,4.517
0.874,-0.051,0.636,-21.667,-26.733,7.141
0.882,-0.034,0.604,-26.123,-26.794,8.972
0.882,-0.051,0.571,-26.794,-26.123,12.451
0.872,-0.070,0.539,-24.475,-24.414,16.296
0.853,-0.078,0.521,-19.958,-22.644,19.775
0.832,-0.102,0.508,-14.282,-19.653,22.339
0.818,-0.125,0.505,-11.658,-15.320,24.475
0.828,-0.137,0.507,-13.916,-10.254,25.574
0.812,-0.127,0.525,-20.508,-3.906,25.574
0.794,-0.115,0.557,-29.785,2.380,24.841
0.811,-0.108,0.600,-40.466,7.935,23.865
0.841,-0.104,0.647,-50.171,11.414,23.560
0.867,-0.107,0.686,-55.786,13.000,24.231
0.870,-0.108,0.724,-57.556,12.695,25.635
0.859,-0.108,0.764,-55.359,11.841,26.123
0.860,-0.109,0.805,-51.575,10.132,25.818
0.868,-0.110,0.848,-48.279,7.996,25.452
0.879,-0.089,0.894,-46.204,4.578,24.902
0.913,-0.056,0.954,-44.128,0.854,24.292
0.950,-0.037,1.015,-41.260,-3.235,24.048
0.955,-0.018,1.056,-42.175,-10.376,24.841
0.951,-0.001,1.063,-46.509,-20.508,26.123
0.957,0.016,1.044,-50.964,-32.227,27.893
0.969,0.031,1.010,-53.650,-42.908,29.785
0.979,0.052,0.969,-56.335,-52.002,31.677
"",,,,,
0.024,1.832,0.824,82.397,-59.143,8.606
0.022,1.896,0.789,86.609,-64.575,19.470
0.032,1.893,0.741,77.087,-69.763,34.058
0.032,1.803,0.681,58.411,-74.768,52.063
0.048,1.637,0.608,37.109,-79.651,70.984
0.093,1.456,0.519,19.653,-83.984,86.365
0.115,1.290,0.427,8.545,-87.402,97.534
0.112,1.151,0.327,5.310,-88.867,104.614
0.104,1.040,0.238,6.531,-88.013,108.398
0.099,0.943,0.146,8.423,-85.022,110.413
0.091,0.868,0.068,10.925,-79.590,110.657
0.077,0.815,0.013,15.320,-71.350,109.497
0.058,0.731,-0.026,19.165,-61.157,108.582
0.044,0.637,-0.043,19.897,-49.744,107.605
0.027,0.561,-0.038,15.503,-37.537,104.797
-0.023,0.490,-0.009,8.850,-25.513,100.098
-0.062,0.415,0.028,4.395,-14.221,92.834
-0.091,0.362,0.071,-1.526,-5.432,84.839
-0.122,0.367,0.121,-9.888,2.014,75.317
-0.153,0.416,0.169,-16.113,8.789,64.270
-0.174,0.516,0.221,-13.855,13.428,54.016
-0.176,0.618,0.254,4.578,12.939,46.631
-0.163,0.664,0.227,31.494,4.883,44.861
-0.162,0.647,0.173,56.702,-4.150,49.072
-0.164,0.583,0.128,73.547,-10.010,55.664
-0.161,0.513,0.102,81.238,-13.550,62.073
-0.152,0.408,0.079,88.196,-16.541,67.993
-0.142,0.263,0.050,100.403,-20.142,74.402
-0.149,0.122,0.025,111.206,-23.560,78.735
-0.193,-0.005,-0.001,113.586,-25.085,77.026
-0.236,-0.091,-0.008,103.210,-24.170,67.749
-0.285,-0.153,0.004,81.665,-19.958,52.856
-0.299,-0.171,0.008,57.068,-13.611,36.804
-0.245,-0.099,-0.022,35.217,-7.202,23.071
-0.052,-0.095,-0.081,15.869,-2.502,19.653
-0.001,-0.116,-0.095,-10.559,1.770,22.156
0.000,-0.118,-0.097,-41.748,7.141,21.118
-0.000,-0.113,-0.088,-73.486,13.000,19.470
-0.002,-0.104,-0.077,-104.187,17.944,18.127
-0.004,-0.093,-0.067,-132.812,22.400,16.479
-0.005,-0.082,-0.062,-158.997,26.306,15.198
-0.006,-0.072,-0.059,-182.312,29.663,13.794
-0.006,-0.062,-0.059,-202.698,32.898,12.573
-0.007,-0.053,-0.062,-219.788,35.828,11.292
-0.008,-0.045,-0.068,-234.680,38.513,9.949
-0.009,-0.037,-0.073,-246.948,41.504,8.728
-0.009,-0.028,-0.076,-256.836,44.800,7.141
-0.010,-0.020,-0.078,-264.465,48.157,5.554
-0.009,-0.012,-0.078,-269.470,51.392,4.211
-0.009,-0.003,-0.075,-271.545,55.115,2.930
-0.010,0.005,-0.073,-271.240,58.777,1.587
-0.010,0.013,-0.071,-268.616,61.951,0.122
-0.011,0.022,-0.067,-263.672,65.002,-1.038
-0.010,-0.034,-0.038,-256.470,68.054,-2.197
-0.079,-0.507,0.044,-264.587,65.247,-12.817
-0.140,-0.160,0.002,-335.266,38.452,-74.646
-0.170,0.055,-0.079,-399.292,7.996,-130.066
-0.169,0.118,-0.119,-420.288,-11.475,-144.043
-0.301,0.081,-0.087,-398.987,-20.447,-154.358
-0.621,0.173,-0.059,-364.197,-31.128,-186.035
-0.704,0.541,-0.456,-363.525,-55.054,-242.432
-0.419,0.897,-0.231,-429.565,-81.299,-293.030
-0.023,0.790,-0.298,-394.226,-94.543,-327.759
0.953,1.739,-0.209,-353.210,-112.122,-343.201
1.498,1.548,-0.517,-278.931,-150.208,-253.662
1.614,2.946,-1.159,-209.778,-160.156,-172.119
0.664,2.816,-1.501,-211.487,-126.282,-120.361
-0.298,1.322,-1.227,-163.757,-83.130,-52.551
-0.548,0.620,-1.059,-91.858,-49.011,-29.419
-0.192,0.292,-0.948,-70.068,-18.127,-36.438
-0.015,0.233,-0.845,-89.722,6.836,-59.265
-0.155,0.453,-0.851,-101.257,22.949,-90.576
-0.132,0.838,-0.985,-105.774,36.926,-117.859
0.022,1.233,-0.981,-122.620,48.767,-130.066
0.160,1.423,-0.809,-124.756,54.688,-124.878
0.220,1.507,-0.693,-105.957,52.246,-106.262
0.160,1.539,-0.670,-92.773,45.166,-78.552
0.146,1.300,-0.468,-82.031,39.551,-48.218
0.191,0.898,-0.218,-36.133,37.415,-22.644
0.062,0.706,-0.059,4.272,34.851,-9.216
-0.044,0.641,-0.038,20.996,28.809,-7.507
-0.160,0.493,0.038,60.669,31.250,-17.639
-0.230,0.458,0.118,120.483,35.828,-36.926
-0.249,0.326,0.196,178.589,34.302,-61.035
-0.179,0.305,0.245,213.806,25.940,-88.867
-0.040,0.410,0.247,228.516,11.414,-116.699
0.132,0.617,0.171,236.023,-4.395,-143.982
0.274,0.874,0.096,239.380,-22.583,-176.270
0.397,1.019,0.023,260.437,-42.297,-210.999
0.643,1.078,-0.004,280.823,-52.307,-242.065
0.497,3.016,-1.920,259.827,-47.180,-262.024
1.022,2.789,-0.949,79.529,2.625,-221.130
0.905,3.028,-1.917,60.059,39.490,-172.485
0.752,2.635,-1.728,75.745,64.453,-114.624
0.771,2.341,-1.298,154.663,103.394,-68.542
0.837,2.021,-0.791,247.314,131.042,-34.058
0.788,1.783,-0.458,314.026,137.024,-8.972
0.697,1.608,-0.195,342.834,128.174,7.935
0.646,1.464,0.015,346.924,114.014,17.517
0.559,1.393,0.199,331.909,99.182,17.639
0.452,1.348,0.420,298.218,83.923,9.521
0.389,1.427,0.583,253.601,66.650,-3.357
0.385,1.445,0.693,201.965,47.485,-16.907
0.413,1.484,0.736,153.015,26.978,-30.396
0.441,1.504,0.728,114.319,5.554,-40.649
0.480,1.456,0.718,91.797,-14.587,-46.753
0.535,1.487,0.679,85.815,-34.912,-49.133
0.610,1.495,0.680,93.506,-54.138,-45.837
0.742,1.345,0.963,110.474,-72.510,-38.330
0.748,1.281,0.868,106.262,-92.896,-26.123
0.647,1.291,0.536,87.524,-115.601,-15.198
0.579,1.259,0.351,89.050,-128.540,-8.606
0.565,1.228,0.264,84.167,-130.188,-5.737
0.569,1.197,0.232,72.693,-125.732,-4.578
0.592,1.182,0.204,58.350,-119.446,-3.174
0.601,1.142,0.197,42.236,-113.220,0.061
0.583,1.067,0.178,27.771,-107.727,4.578
0.576,0.953,0.152,18.860,-102.844,8.911
0.572,0.927,0.132,15.015,-98.938,10.620
"",,,,,
0.654,0.508,0.999,312.073,-183.777,-50.537
0.503,0.588,0.598,56.946,-171.570,-47.607
0.437,0.549,0.550,-5.493,-136.536,-52.368
0.433,0.661,0.603,-42.419,-109.192,-56.335
0.359,0.853,0.601,-80.811,-82.275,-55.054
0.282,0.869,0.636,-54.993,-48.584,-51.208
0.291,0.796,0.683,1.465,-19.653,-47.058
0.335,0.786,0.719,26.367,-1.343,-42.786
0.406,0.831,0.763,29.358,9.583,-36.926
0.450,0.787,0.747,38.208,15.503,-28.503
0.427,0.734,0.653,48.279,18.616,-18.188
0.407,0.670,0.653,59.082,24.292,-8.850
0.369,0.607,0.679,66.223,31.006,-3.540
0.317,0.505,0.704,63.477,36.011,-2.319
0.290,0.475,0.706,55.725,37.415,-6.836
0.302,0.507,0.723,51.575,37.048,-13.123
0.324,0.539,0.770,49.316,36.072,-15.686
0.331,0.543,0.819,43.884,33.508,-12.817
0.326,0.530,0.846,34.485,29.053,-8.118
0.320,0.514,0.851,26.917,23.254,-4.395
0.308,0.503,0.843,22.278,16.479,-2.625
0.305,0.501,0.830,18.433,9.583,-2.014
0.315,0.513,0.819,15.076,2.625,-1.770
0.329,0.520,0.809,14.221,-3.052,-1.221
0.335,0.515,0.804,14.404,-7.446,-0.488
0.335,0.500,0.801,15.320,-10.803,0.305
0.330,0.481,0.798,16.968,-12.939,0.671
0.318,0.462,0.782,18.188,-14.771,0.488
0.309,0.440,0.776,17.578,-15.259,0.061
0.304,0.432,0.788,13.550,-15.259,-0.610
0.303,0.440,0.796,6.897,-15.503,-1.038
0.300,0.450,0.808,1.221,-15.442,-1.404
0.294,0.452,0.819,-1.282,-14.832,-1.892
0.282,0.452,0.819,-2.136,-14.282,-2.625
0.265,0.455,0.810,-2.258,-12.878,-4.028
0.252,0.457,0.800,-1.831,-11.475,-5.371
0.243,0.459,0.788,-1.038,-9.705,-6.531
0.237,0.463,0.777,0.000,-7.629,-7.385
0.237,0.468,0.769,0.793,-5.737,-7.690
0.234,0.473,0.767,0.977,-4.089,-7.568
0.228,0.477,0.772,0.610,-2.441,-6.958
0.223,0.476,0.775,-0.122,-1.099,-5.859
0.224,0.475,0.782,-0.793,-0.122,-4.578
0.228,0.476,0.789,-1.099,0.427,-3.235
0.233,0.474,0.798,-1.648,0.854,-1.709
0.238,0.471,0.812,-2.991,0.671,-0.488
0.239,0.471,0.819,-4.211,-0.244,0.305
0.241,0.476,0.828,-4.700,-1.404,0.977
0.243,0.479,0.845,-4.456,-2.930,1.465
0.246,0.482,0.852,-3.845,-4.761,1.953
0.249,0.472,0.842,-2.991,-7.202,2.502
0.253,0.460,0.832,-1.038,-8.789,2.930
0.256,0.451,0.823,-0.122,-10.193,3.540
0.262,0.442,0.816,0.183,-11.047,3.906
0.270,0.434,0.813,-0.366,-10.925,4.211
0.276,0.427,0.820,-0.916,-10.193,4.272
0.283,0.427,0.833,-2.014,-9.705,4.272
0.283,0.429,0.844,-2.625,-8.850,3.540
0.284,0.435,0.847,-2.441,-8.057,2.686
0.282,0.441,0.844,-1.648,-6.775,1.831
0.279,0.448,0.840,-0.671,-5.371,0.610
0.275,0.454,0.838,0.061,-3.540,-0.305
0.270,0.462,0.839,0.793,-2.319,-0.610
0.265,0.467,0.837,1.038,-0.793,-0.977
0.262,0.470,0.839,1.648,0.732,-0.977
0.261,0.474,0.843,2.563,1.587,-0.977
0.262,0.473,0.844,3.479,2.319,-1.038
0.269,0.473,0.847,4.028,2.502,-0.977
0.277,0.472,0.851,3.784,1.770,-0.610
0.285,0.473,0.855,3.357,0.610,-0.427
0.294,0.479,0.855,2.869,-0.244,-0.244
0.301,0.485,0.860,2.625,-1.099,-0.366
0.300,0.493,0.863,2.869,-1.648,-0.793
0.296,0.497,0.864,4.028,-1.648,-1.465
0.290,0.498,0.861,5.127,-1.465,-2.380
0.287,0.492,0.853,6.226,-1.038,-2.869
0.288,0.487,0.853,7.324,-0.183,-2.991
0.286,0.478,0.871,7.629,0.732,-3.357
0.294,0.482,0.907,7.507,1.587,-3.662
0.305,0.498,0.943,7.263,2.136,-3.784
0.313,0.510,0.972,8.240,2.014,-3.967
0.316,0.516,0.999,10.437,1.221,-4.211
0.314,0.516,1.017,13.000,0.549,-4.944
0.311,0.516,1.031,15.564,-0.854,-5.493
0.314,0.526,1.057,18.860,-1.953,-6.287
0.319,0.534,1.082,22.766,-3.540,-7.629
0.326,0.529,1.096,28.076,-5.432,-8.972
0.329,0.524,1.099,33.386,-7.507,-10.254
0.327,0.522,1.094,36.255,-9.644,-10.742
0.324,0.517,1.100,37.537,-11.658,-11.169
0.326,0.511,1.113,38.452,-13.062,-11.108
0.328,0.505,1.115,39.429,-14.587,-11.169
0.330,0.504,1.118,40.283,-15.503,-11.414
0.330,0.512,1.128,41.138,-16.357,-11.597
0.330,0.524,1.120,41.809,-17.883,-11.230
0.332,0.532,1.090,43.457,-20.142,-10.376
0.335,0.530,1.062,46.265,-21.118,-9.583
0.333,0.523,1.023,48.706,-21.606,-8.545
0.323,0.515,0.993,50.293,-21.606,-7.935
0.313,0.502,0.965,50.842,-20.996,-7.629
0.301,0.482,0.941,50.110,-19.714,-7.690
0.288,0.449,0.922,48.401,-19.348,-7.874
0.281,0.422,0.915,46.936,-18.311,-8.789
0.278,0.410,0.922,43.274,-17.090,-10.010
0.270,0.406,0.940,38.025,-16.968,-11.292
0.262,0.396,0.965,33.386,-17.761,-11.841
0.254,0.383,0.984,28.259,-19.775,-11.658
0.251,0.368,1.017,22.583,-21.912,-11.353
0.252,0.354,1.054,17.090,-24.719,-11.230
0.250,0.336,1.088,15.381,-28.137,-11.658
0.246,0.329,1.103,16.296,-30.701,-13.367
0.240,0.335,1.106,18.127,-33.386,-14.771
0.232,0.341,1.099,19.653,-36.255,-15.198
0.221,0.346,1.081,21.057,-38.879,-14.954
0.211,0.346,1.062,21.484,-40.955,-14.709
0.195,0.349,1.028,18.616,-43.213,-14.526
0.184,0.334,1.035,14.282,-43.884,-15.503
0.186,0.307,1.073,8.118,-43.457,-17.151
0.182,0.282,1.145,0.793,-44.556,-20.325
"",,,,,
-0.470,1.005,0.842,-23.071,-7.263,5.676
-0.205,0.069,1.131,-24.170,-40.100,22.034
-0.072,-0.038,1.118,-72.510,-73.547,26.672
-0.161,0.339,0.840,-67.322,-98.816,24.170
-0.191,0.532,0.841,-39.734,-112.976,26.489
-0.156,0.594,0.926,-11.047,-124.573,36.865
-0.240,0.708,0.931,-15.015,-131.714,52.612
-0.306,0.685,0.912,-22.400,-131.653,66.956
-0.421,0.565,0.797,-47.058,-116.394,71.960
-0.379,0.521,0.714,-75.745,-98.999,68.176
-0.239,0.310,0.644,-94.299,-89.600,66.528
-0.196,-0.035,0.415,-108.582,-82.886,63.904
-0.324,-0.072,0.603,-105.225,-72.693,52.612
-0.497,0.290,0.569,-26.733,-63.965,34.302
-0.603,0.616,0.744,105.896,-61.279,22.766
-0.534,0.515,0.467,252.686,-65.918,19.043
-0.487,0.197,0.350,310.791,-71.777,24.719
-0.422,0.078,0.553,234.070,-71.777,37.231
-0.402,0.151,0.824,160.889,-73.120,48.950
-0.447,0.332,0.960,143.555,-78.125,56.946
-0.440,0.386,1.007,168.213,-83.618,62.378
-0.375,0.294,0.986,192.139,-87.158,65.857
-0.297,0.161,0.911,192.444,-88.989,67.017
-0.236,0.079,0.814,172.119,-88.623,65.735
-0.202,0.062,0.696,141.541,-89.966,63.599
-0.182,0.081,0.572,114.319,-93.201,61.035
-0.161,0.133,0.444,99.548,-96.436,58.655
-0.131,0.202,0.349,98.511,-100.159,56.641
-0.104,0.259,0.275,111.145,-103.638,56.396
-0.091,0.286,0.235,130.493,-106.934,58.960
-0.096,0.312,0.250,152.649,-110.474,64.026
-0.092,0.326,0.273,179.443,-114.502,70.679
-0.093,0.306,0.286,209.045,-118.469,78.796
-0.104,0.260,0.287,234.253,-119.324,87.280
-0.127,0.217,0.262,248.657,-120.056,95.032
-0.138,0.178,0.236,251.892,-122.437,103.271
-0.135,0.114,0.189,247.009,-125.793,109.192
-0.114,0.040,0.146,235.352,-128.601,112.488
-0.016,-0.022,0.073,219.055,-129.639,112.915
0.040,-0.058,0.026,194.702,-127.991,111.633
0.057,-0.091,-0.019,156.372,-124.878,111.328
0.042,-0.119,-0.055,109.131,-121.155,114.441
0.012,-0.107,-0.059,56.274,-115.417,116.577
-0.031,0.005,-0.017,19.165,-105.103,115.112
-0.040,0.011,0.022,38.086,-86.060,112.061
-0.040,0.015,0.033,80.017,-65.979,107.788
-0.020,-0.061,0.038,115.845,-48.706,104.004
-0.016,-0.122,0.028,118.591,-38.696,101.990
-0.017,-0.152,0.021,77.454,-36.743,101.135
-0.026,-0.144,0.021,20.386,-36.072,100.830
-0.016,-0.186,0.019,-35.095,-35.156,100.769
-0.021,-0.188,0.009,-97.961,-35.156,99.915
-0.022,-0.185,0.005,-164.307,-35.828,98.572
-0.026,-0.179,0.001,-224.487,-35.461,96.924
-0.030,-0.165,-0.007,-277.466,-34.729,94.971
-0.037,-0.148,-0.018,-324.524,-33.142,93.018
-0.046,-0.129,-0.030,-365.295,-30.273,91.248
-0.056,-0.108,-0.045,-399.902,-26.489,89.783
-0.064,-0.083,-0.059,-428.467,-21.667,88.745
-0.072,-0.062,-0.073,-452.209,-15.198,88.074
-0.075,-0.041,-0.087,-471.741,-7.751,88.196
-0.096,-0.005,-0.114,-487.976,0.488,88.074
-0.095,0.009,-0.123,-499.573,11.353,88.074
-0.099,0.033,-0.133,-507.874,24.597,88.318
-0.142,0.098,-0.157,-508.911,41.199,88.196
-0.213,1.354,-0.515,-467.651,86.487,93.079
-0.993,-4.000,4.000,-154.785,231.567,116.150
-0.700,-2.337,2.588,-110.229,192.749,32.043
-0.151,-0.674,1.590,-143.188,183.411,-65.918
-0.160,0.732,1.373,-375.305,180.298,-70.251
-0.219,0.468,1.003,-498.718,170.715,-46.936
-0.113,0.147,0.854,-516.113,156.738,-39.612
1.139,0.148,1.409,-538.208,102.783,-47.852
1.420,0.388,0.964,-620.972,-96.191,-8.972
0.700,0.316,0.467,-394.531,-207.581,17.456
0.203,0.048,0.011,-209.351,-254.822,-24.231
-0.343,0.233,0.019,-108.337,-271.912,-77.148
-0.917,0.577,0.137,-36.133,-268.311,-117.493
-1.167,0.457,-0.256,-12.695,-255.676,-147.339
-1.858,0.350,-1.401,-150.452,-222.168,-155.396
-1.712,0.503,-0.963,-402.893,-140.137,-142.761
-1.461,0.828,-0.787,-432.495,-86.365,-138.855
-1.161,1.221,-0.617,-362.488,-43.335,-151.001
-1.075,1.509,-0.562,-265.808,-7.446,-159.302
-1.037,1.617,-0.569,-179.626,25.452,-157.593
-0.955,1.519,-0.504,-103.394,57.190,-151.611
-1.005,1.313,-0.331,-33.142,88.196,-147.095
-0.966,1.314,-0.136,24.353,115.234,-147.949
-0.788,1.433,0.013,75.256,138.306,-150.879
-0.602,1.607,0.215,127.258,155.457,-148.743
-0.416,1.803,0.570,186.523,163.269,-139.038
-0.008,1.416,3.405,251.404,157.104,-117.371
-0.293,0.898,2.741,99.609,116.089,-76.172
-0.462,1.425,1.474,-94.299,66.162,-52.124
-0.377,1.493,1.572,-95.581,39.185,-48.218
-0.371,1.605,1.579,-76.599,10.681,-36.255
-0.382,1.528,1.269,-49.561,-14.160,-19.958
-0.361,1.390,1.104,-9.277,-32.288,-8.911
-0.363,1.268,0.967,15.564,-45.837,-4.517
-0.344,1.176,0.811,33.386,-55.237,-3.906
-0.431,1.329,0.482,46.326,-60.364,-4.089
-0.383,1.020,0.254,47.241,-55.908,-0.549
-0.390,0.896,0.673,29.480,-41.626,3.357
-0.405,0.944,0.753,25.757,-34.546,0.610
-0.407,1.097,0.699,10.864,-37.231,-0.916
-0.377,1.160,0.672,2.197,-38.513,1.282
-0.363,1.083,0.623,1.099,-38.513,5.615
-0.352,1.054,0.568,-1.343,-37.659,10.132
-0.337,1.074,0.530,-2.502,-35.095,11.047
-0.297,1.070,0.527,-1.831,-29.785,9.949
-0.266,1.029,0.544,0.793,-23.926,7.751
-0.248,1.000,0.549,3.479,-18.250,4.700
-0.241,0.999,0.555,5.432,-14.282,0.610
-0.229,1.001,0.575,7.629,-11.292,-3.601
-0.218,1.008,0.590,8.667,-9.216,-7.080
-0.211,1.031,0.609,7.202,-10.193,-9.888
-0.208,1.074,0.635,4.822,-11.902,-10.986
-0.209,1.101,0.638,2.075,-16.113,-9.277
-0.212,1.106,0.620,1.892,-21.362,-6.104
"",,,,,
-0.182,4.000,1.456,-92.224,79.163,63.110
0.645,1.083,3.725,85.266,93.018,-38.086
-0.144,4.000,3.392,-206.238,58.044,-91.980
-0.279,3.325,2.344,-7.812,39.001,-62.439
-0.488,0.658,2.222,134.644,-12.573,25.330
-0.358,0.445,1.720,101.990,-78.430,6.836
-0.418,1.011,1.174,59.998,-127.258,-46.692
-0.651,1.323,1.190,75.012,-136.902,-59.387
-0.447,0.960,0.788,128.601,-123.901,-21.179
-0.167,0.651,0.647,172.729,-90.515,30.762
0.220,0.432,0.718,147.583,-61.768,70.374
0.510,0.505,0.738,88.379,-61.646,86.426
0.471,0.461,0.854,49.500,-77.332,81.055
0.293,0.534,0.935,26.428,-100.464,59.814
0.016,0.745,0.991,21.301,-121.155,36.377
-0.238,0.932,1.001,51.208,-138.062,17.151
-0.452,1.065,0.972,117.065,-154.053,0.427
-0.590,1.123,0.930,224.060,-169.434,-18.250
-0.697,1.796,-0.314,331.848,-184.082,-35.828
-0.921,1.993,-0.857,448.608,-166.443,-32.349
-0.307,0.467,0.505,507.324,-107.971,2.869
-0.172,0.564,0.456,322.388,-71.167,31.738
0.012,0.373,0.740,228.821,-29.602,51.392
0.091,0.309,0.780,288.208,-7.690,59.265
-0.044,0.295,0.491,371.033,0.122,66.345
-0.358,0.148,0.048,465.271,16.235,73.364
-0.633,0.101,-0.078,555.847,50.781,75.195
-0.867,-0.317,0.329,592.102,99.060,78.796
-0.668,-0.151,0.310,404.602,156.921,87.341
-0.634,-0.376,0.853,221.863,211.426,97.839
-0.594,-0.234,0.743,72.571,256.042,102.661
-0.528,-0.782,0.866,-28.198,290.527,98.877
-0.377,-1.186,2.301,-37.842,312.012,73.914
-0.307,-1.568,2.221,-195.801,307.068,48.523
-0.208,-1.234,2.961,-279.968,283.081,9.705
0.021,-0.177,3.272,-232.971,227.051,-28.625
0.096,0.209,2.631,-66.589,146.912,-45.105
0.082,0.114,1.938,36.011,75.439,-38.086
0.112,0.061,1.427,25.513,23.804,-19.104
0.177,0.098,0.967,-13.428,-10.254,1.526
0.041,0.591,0.381,-41.809,-31.189,22.461
-0.118,0.574,0.677,-18.188,-38.818,44.189
-0.048,0.219,0.876,63.354,-45.593,58.044
0.086,-0.088,0.925,121.338,-58.350,59.204
0.183,-0.228,0.931,124.451,-72.815,52.185
0.192,-0.251,0.909,107.727,-84.778,40.649
0.168,-0.209,0.861,96.741,-91.919,27.405
0.122,-0.150,0.822,94.055,-93.750,15.625
0.078,-0.164,0.810,107.788,-90.149,7.812
-0.006,-0.183,0.865,130.798,-81.482,2.869
-0.111,-0.186,0.914,148.437,-70.557,1.892
-0.203,-0.255,0.950,162.903,-59.937,3.296
-0.257,-0.316,1.000,172.302,-50.415,5.005
-0.280,-0.331,1.018,176.208,-41.138,6.226
-0.282,-0.316,1.019,178.589,-31.067,7.019
-0.252,-0.335,0.999,185.608,-18.616,7.385
-0.208,-0.375,0.965,190.247,-5.432,6.775
-0.164,-0.414,0.936,190.125,7.141,5.127
-0.129,-0.428,0.897,183.594,18.799,2.686
-0.101,-0.441,0.862,172.302,28.137,0.549
-0.089,-0.451,0.850,161.072,35.339,-1.770
-0.086,-0.469,0.849,153.931,41.077,-4.333
-0.078,-0.478,0.854,151.978,44.678,-6.653
-0.054,-0.486,0.819,157.349,46.082,-9.094
-0.048,-0.496,0.786,169.617,46.204,-11.292
-0.056,-0.551,0.786,188.721,45.654,-13.245
-0.036,-0.675,0.828,210.876,43.762,-17.090
0.052,-0.859,0.913,230.713,39.063,-23.682
0.158,-1.064,0.875,245.972,32.959,-33.325
0.096,-1.393,0.572,239.929,28.931,-43.274
-0.031,-1.248,0.516,146.057,29.236,-47.180
-0.123,-0.896,0.695,24.841,31.067,-42.664
-0.256,-0.727,0.927,11.902,32.593,-38.818
-0.322,-0.881,1.042,78.369,30.762,-36.194
-0.221,-1.002,1.123,108.521,24.658,-30.884
-0.046,-0.999,1.175,79.590,15.442,-23.743
0.070,-1.010,1.175,45.776,5.615,-19.531
0.078,-0.971,1.074,33.203,-4.211,-20.996
0.063,-0.927,0.983,32.471,-12.390,-23.071
0.054,-0.918,0.960,30.518,-18.005,-21.912
0.049,-0.920,0.931,26.550,-23.376,-18.921
-0.002,-0.952,0.898,27.405,-28.748,-16.724
-0.095,-0.981,0.873,24.475,-33.264,-15.320
-0.138,-0.965,0.829,19.958,-36.316,-13.123
-0.189,-0.978,0.764,17.273,-37.659,-10.437
-0.227,-1.020,0.688,19.104,-35.950,-8.606
-0.251,-1.013,0.615,20.569,-31.738,-7.507
-0.261,-1.002,0.561,22.766,-24.414,-6.775
-0.265,-1.030,0.541,27.222,-15.259,-6.714
-0.260,-1.049,0.534,29.663,-5.188,-7.385
-0.250,-1.031,0.550,27.222,5.066,-8.545
-0.245,-1.009,0.576,26.001,16.663,-9.399
-0.236,-1.007,0.586,28.015,29.236,-11.353
-0.219,-0.989,0.592,24.536,41.321,-13.733
-0.202,-0.968,0.610,18.066,53.528,-16.052
-0.190,-0.949,0.632,11.719,64.453,-17.761
-0.177,-0.930,0.643,5.554,73.242,-19.165
-0.152,-0.912,0.644,1.343,80.444,-20.569
-0.120,-0.886,0.649,-3.052,85.388,-20.874
-0.088,-0.863,0.662,-5.005,87.891,-20.386
-0.061,-0.857,0.677,-2.380,87.769,-19.226
-0.036,-0.855,0.685,-0.183,85.999,-17.273
-0.018,-0.853,0.688,0.061,83.374,-14.587
-0.009,-0.857,0.685,0.916,81.116,-12.024
-0.005,-0.856,0.683,0.610,79.041,-8.728
0.003,-0.862,0.687,-2.258,76.477,-6.226
0.018,-0.881,0.698,-4.578,73.730,-4.822
0.024,-0.902,0.718,-7.324,70.984,-4.272
0.033,-0.926,0.720,-10.986,67.688,-4.517
0.030,-0.921,0.707,-16.235,64.636,-5.127
0.006,-0.884,0.692,-23.071,62.012,-4.700
-0.011,-0.874,0.682,-27.466,60.242,-2.747
-0.018,-0.877,0.678,-28.564,58.105,0.000
-0.017,-0.885,0.683,-26.917,54.688,2.686
-0.001,-0.888,0.678,-24.109,51.025,5.127
0.021,-0.883,0.668,-20.447,46.692,7.874
0.045,-0.871,0.656,-14.282,43.152,10.315
0.053,-0.859,0.656,-5.188,41.199,12.695
0.056,-0.856,0.660,0.671,40.588,15.503
"",,,,,
-0.768,-0.741,0.544,-6.531,-79.834,4.517
-0.763,-0.544,0.570,-25.940,-83.557,-20.874
-0.544,-0.578,0.562,-30.884,-84.351,-27.832
-0.387,-0.709,0.502,-28.198,-85.693,-31.799
-0.242,-0.755,0.563,-22.400,-81.970,-39.917
-0.186,-0.642,0.618,-39.978,-77.026,-46.936
-0.113,-0.532,0.591,-64.514,-73.975,-50.354
0.012,-0.432,0.521,-77.454,-70.129,-50.598
0.141,-0.464,0.632,-75.989,-63.965,-47.424
-0.026,-0.452,0.715,-80.444,-60.486,-40.466
-0.090,-0.327,0.609,-94.177,-61.890,-33.813
-0.130,-0.307,0.579,-92.346,-59.204,-26.794
-0.209,-0.353,0.601,-88.623,-53.650,-19.348
-0.212,-0.372,0.651,-86.548,-47.424,-16.113
-0.186,-0.354,0.684,-83.069,-42.847,-15.503
-0.170,-0.321,0.716,-72.693,-38.574,-15.137
-0.162,-0.312,0.734,-56.091,-34.424,-13.550
-0.129,-0.345,0.731,-39.307,-29.541,-11.169
-0.090,-0.373,0.750,-22.034,-24.963,-8.789
-0.078,-0.383,0.775,-7.446,-20.508,-6.104
-0.083,-0.390,0.771,3.235,-17.212,-3.601
-0.089,-0.385,0.748,14.771,-14.771,-0.793
-0.076,-0.422,0.759,26.428,-11.230,2.930
-0.073,-0.473,0.840,35.522,-9.094,6.348
-0.100,-0.494,0.889,35.461,-11.047,9.033
-0.146,-0.500,0.896,29.663,-15.015,11.292
-0.193,-0.497,0.887,22.705,-17.700,12.939
-0.202,-0.501,0.868,18.188,-20.020,13.916
-0.193,-0.520,0.834,16.541,-21.545,14.282
-0.180,-0.545,0.816,16.296,-22.583,14.160
-0.182,-0.566,0.798,15.991,-23.560,13.794
-0.177,-0.592,0.765,16.663,-24.109,12.756
-0.156,-0.654,0.726,18.799,-23.010,10.742
-0.160,-0.667,0.742,21.179,-20.386,7.141
-0.244,-0.619,0.786,17.578,-18.738,3.479
-0.279,-0.569,0.781,10.986,-18.066,1.465
-0.269,-0.550,0.763,8.057,-17.578,0.488
-0.262,-0.546,0.757,8.423,-16.907,0.671
-0.264,-0.543,0.755,8.606,-16.357,1.038
-0.266,-0.547,0.746,8.667,-14.893,1.526
-0.261,-0.548,0.745,8.118,-13.550,1.831
-0.268,-0.555,0.754,6.470,-12.085,1.892
-0.270,-0.563,0.768,3.540,-10.437,1.953
-0.266,-0.561,0.778,0.793,-8.911,0.916
-0.263,-0.547,0.780,-0.427,-8.118,-0.244
-0.262,-0.533,0.778,-0.427,-7.751,-0.977
-0.262,-0.531,0.779,0.183,-7.751,-1.465
-0.264,-0.536,0.776,1.770,-7.874,-1.526
-0.264,-0.539,0.767,3.113,-7.935,-0.916
-0.266,-0.540,0.758,4.150,-7.935,-0.366
-0.266,-0.538,0.763,4.395,-7.324,0.366
-0.277,-0.540,0.774,4.333,-7.019,0.732
-0.292,-0.534,0.783,4.089,-6.226,1.221
-0.302,-0.526,0.782,4.456,-5.859,1.709
-0.302,-0.525,0.780,5.310,-5.920,2.502
-0.296,-0.531,0.783,7.019,-6.042,3.296
-0.285,-0.541,0.787,7.751,-6.531,3.967
-0.284,-0.548,0.784,7.568,-7.263,4.578
-0.284,-0.555,0.782,7.385,-7.812,5.127
-0.290,-0.563,0.786,6.042,-7.935,5.127
-0.294,-0.563,0.798,4.578,-7.812,5.066
-0.295,-0.553,0.809,3.113,-8.240,5.249
-0.298,-0.543,0.822,3.418,-9.399,5.615
-0.302,-0.535,0.819,5.310,-11.414,5.920
-0.313,-0.530,0.804,7.446,-13.550,6.470
-0.317,-0.524,0.793,9.338,-14.832,7.263
-0.318,-0.517,0.787,10.803,-15.747,7.812
-0.318,-0.528,0.780,11.719,-17.029,9.277
-0.307,-0.554,0.759,11.169,-17.761,11.353
-0.305,-0.579,0.750,8.179,-17.090,12.329
-0.303,-0.582,0.755,3.845,-15.930,12.634
-0.296,-0.574,0.767,-0.183,-14.893,12.573
-0.292,-0.548,0.779,-1.648,-14.648,12.329
-0.291,-0.526,0.795,0.305,-15.564,12.817
-0.291,-0.505,0.799,3.845,-17.151,14.099
-0.300,-0.499,0.810,7.996,-18.555,16.418
-0.316,-0.472,0.845,14.465,-19.958,18.433
-0.333,-0.451,0.862,25.146,-23.682,20.508
-0.338,-0.464,0.854,36.621,-29.175,23.682
-0.330,-0.495,0.830,45.654,-34.058,26.855
-0.322,-0.530,0.798,54.810,-38.086,29.358
-0.309,-0.573,0.747,61.829,-41.077,30.334
-0.300,-0.617,0.696,62.866,-42.053,30.579
-0.268,-0.631,0.675,61.035,-41.809,29.480
-0.248,-0.640,0.718,60.181,-40.894,28.137
-0.261,-0.650,0.770,62.805,-42.542,27.832
-0.280,-0.662,0.775,67.139,-46.753,27.954
-0.285,-0.664,0.800,72.693,-51.331,27.893
-0.290,-0.681,0.752,80.444,-56.824,28.259
-0.315,-0.696,0.652,95.520,-62.927,28.137
-0.414,-0.783,0.408,106.140,-67.505,29.053
-0.525,-0.908,0.079,86.426,-64.209,31.860
-0.526,-0.914,0.222,27.344,-49.133,35.217
-0.443,-0.908,0.465,-15.686,-34.668,34.973
-0.306,-0.897,0.620,-18.799,-30.945,32.715
-0.240,-0.833,0.668,-6.775,-36.560,32.715
-0.310,-0.832,0.723,2.808,-45.288,34.912
-0.311,-0.856,0.775,14.221,-53.650,35.400
-0.322,-0.838,0.718,32.043,-58.105,29.541
-0.358,-0.765,0.668,55.786,-54.932,21.179
-0.365,-0.787,0.633,85.144,-47.852,16.724
-0.312,-0.693,0.599,115.906,-40.344,14.526
-0.329,-0.890,0.592,145.386,-34.119,10.620
-0.324,-0.981,0.457,161.072,-28.748,6.714
-0.329,-1.031,0.406,156.677,-20.874,6.531
-0.350,-1.007,0.354,146.423,-12.695,9.338
-0.374,-1.033,0.326,136.414,-4.272,14.893
-0.409,-1.018,0.290,122.742,2.808,19.531
-0.408,-1.028,0.273,106.018,8.423,23.682
-0.393,-1.023,0.257,87.158,10.559,26.428
-0.320,-1.135,0.303,59.265,13.306,28.809
-0.355,-0.871,0.389,24.536,35.522,40.222
-0.415,-1.057,0.301,69.885,38.025,44.250
-0.323,-1.059,0.276,64.819,32.654,45.837
-0.272,-1.023,0.288,52.490,28.137,44.250
-0.126,-1.069,0.260,31.433,26.062,45.288
-0.185,-0.938,0.204,-5.554,24.597,44.617
-0.360,-0.959,0.219,-17.212,15.808,33.875
-0.402,-0.980,0.298,-9.583,2.869,20.447
"",,,,,
-0.260,-1.002,1.244,-562.500,285.767,196.594
0.066,0.173,0.891,-295.471,314.209,109.802
0.220,0.908,1.084,-151.062,337.585,35.522
0.376,0.520,1.746,-10.681,326.721,18.616
0.454,0.226,1.820,44.800,311.951,19.775
0.400,-0.000,1.707,36.316,296.143,20.081
0.256,-0.211,1.660,53.345,277.893,13.123
0.228,-0.271,1.552,95.642,255.798,5.920
0.254,-0.208,1.356,139.771,233.887,4.517
0.267,-0.147,1.125,165.833,214.966,7.202
0.245,-0.139,0.911,174.194,198.914,11.658
0.197,-0.199,0.752,166.565,185.303,15.930
0.143,-0.277,0.665,142.212,174.500,17.883
0.112,-0.318,0.622,106.995,164.612,17.212
0.128,-0.257,0.609,72.876,155.029,13.794
0.190,-0.125,0.552,47.363,146.057,10.010
0.289,-0.033,0.511,27.161,138.062,8.179
0.369,-0.117,0.600,7.568,131.165,9.399
0.455,-0.242,0.836,-30.640,122.925,14.648
0.579,-0.135,1.016,-91.675,109.802,26.428
0.673,0.074,1.194,-137.634,91.980,49.316
0.762,0.305,1.450,-175.476,72.205,85.205
0.819,0.376,1.657,-206.055,53.223,126.526
0.827,0.426,1.752,-210.266,37.476,162.659
0.945,0.471,1.908,-184.448,24.780,185.486
0.979,0.293,1.746,-125.427,15.137,190.918
0.875,0.130,1.442,-79.285,12.085,181.030
0.668,0.149,1.365,-64.026,13.489,161.377
0.587,0.251,1.311,-70.496,13.489,141.235
0.634,0.373,1.267,-85.266,13.062,124.817
0.742,0.545,1.271,-94.482,14.648,111.816
0.808,0.551,1.265,-98.389,19.043,102.356
0.774,0.472,1.262,-108.887,24.109,92.529
0.706,0.382,1.265,-118.958,29.907,81.909
0.672,0.212,1.216,-121.521,36.743,72.571
0.656,0.106,1.182,-119.507,44.983,62.195
0.688,0.158,1.189,-109.009,52.734,49.927
0.708,0.280,1.235,-94.177,57.129,43.823
0.708,0.409,1.280,-80.872,57.678,47.424
0.708,0.484,1.289,-68.787,53.406,57.739
0.724,0.499,1.255,-58.044,45.288,70.068
0.743,0.498,1.176,-47.302,36.011,78.674
0.761,0.499,1.071,-34.241,27.405,81.665
0.759,0.514,0.967,-19.226,20.874,79.590
0.730,0.539,0.892,-3.540,17.456,73.853
0.723,0.558,0.840,11.902,14.648,67.261
0.732,0.580,0.802,20.325,10.681,62.195
0.764,0.603,0.748,24.658,6.653,58.411
0.757,0.574,0.715,32.959,6.836,51.880
0.759,0.557,0.729,30.273,7.141,44.617
0.766,0.564,0.719,20.813,1.282,36.865
0.754,0.613,0.705,10.254,-5.737,27.893
0.742,0.644,0.710,2.197,-11.536,19.714
0.745,0.650,0.731,-3.113,-15.930,12.573
0.744,0.631,0.769,-10.193,-20.203,7.263
0.755,0.619,0.801,-22.095,-24.170,4.456
0.763,0.636,0.834,-34.363,-29.358,3.113
0.752,0.676,0.880,-41.809,-36.560,1.587
0.734,0.717,0.921,-41.260,-46.387,0.122
0.741,0.729,0.933,-35.706,-57.495,-1.709
0.758,0.725,0.903,-33.020,-68.787,-3.113
0.776,0.693,0.841,-32.837,-77.148,-3.784
0.763,0.674,0.772,-31.738,-79.712,-5.371
0.729,0.694,0.710,-27.893,-76.416,-9.155
0.683,0.709,0.662,-22.217,-68.604,-12.390
0.639,0.724,0.628,-15.259,-58.289,-13.977
0.602,0.731,0.601,-8.972,-47.241,-13.184
0.578,0.729,0.590,-5.249,-35.522,-10.254
0.561,0.717,0.601,-3.540,-24.414,-6.226
0.550,0.702,0.637,-2.563,-14.404,-2.075
0.547,0.697,0.682,0.061,-7.019,1.099
0.544,0.693,0.727,4.028,-2.014,2.747
0.552,0.686,0.764,7.141,0.427,3.540
0.562,0.680,0.791,7.202,0.549,4.822
0.563,0.671,0.799,4.517,-1.526,6.897
0.552,0.661,0.789,0.366,-5.066,9.888
0.537,0.642,0.765,-3.906,-9.338,12.817
0.526,0.624,0.737,-7.141,-12.817,15.808
0.503,0.617,0.709,-10.498,-15.381,18.250
0.502,0.599,0.677,-11.108,-17.029,20.386
0.503,0.582,0.653,-14.587,-17.639,22.522
0.491,0.570,0.630,-21.301,-16.541,23.499
0.481,0.559,0.613,-25.269,-14.465,23.254
0.464,0.557,0.604,-31.494,-11.536,22.339
0.443,0.565,0.602,-34.912,-7.080,20.508
0.435,0.571,0.615,-32.959,-3.357,18.921
0.429,0.575,0.630,-32.349,-0.793,18.616
0.424,0.586,0.631,-35.217,2.136,18.250
0.417,0.599,0.641,-34.302,4.761,17.761
0.411,0.602,0.652,-30.396,6.653,17.517
0.406,0.598,0.660,-26.245,7.935,17.639
0.399,0.590,0.664,-23.193,9.033,17.273
0.392,0.581,0.669,-19.958,9.827,16.602
0.384,0.574,0.675,-17.334,9.521,15.137
0.379,0.565,0.682,-15.503,8.728,13.489
0.378,0.555,0.689,-14.893,7.202,11.841
0.377,0.552,0.694,-15.747,4.395,10.254
0.379,0.549,0.693,-17.517,1.526,8.545
0.382,0.555,0.688,-19.897,-1.587,7.141
0.385,0.565,0.681,-21.545,-4.150,5.371
0.385,0.577,0.674,-22.339,-6.165,3.113
0.385,0.586,0.665,-21.973,-7.874,1.221
0.384,0.589,0.652,-20.935,-9.033,-0.061
0.383,0.589,0.644,-19.958,-9.399,-1.038
0.380,0.593,0.642,-18.799,-9.155,-1.953
0.376,0.595,0.642,-17.700,-8.667,-2.869
0.374,0.595,0.643,-17.029,-8.484,-3.906
0.370,0.598,0.645,-16.663,-7.935,-4.761
0.367,0.606,0.649,-16.357,-7.324,-5.676
0.362,0.618,0.651,-16.235,-7.202,-6.531
0.360,0.630,0.652,-15.808,-7.080,-7.202
0.363,0.643,0.654,-15.320,-6.958,-7.629
0.364,0.658,0.658,-14.587,-6.409,-7.812
0.365,0.667,0.659,-13.367,-5.981,-7.202
0.365,0.668,0.656,-12.207,-5.432,-6.348
0.362,0.664,0.648,-11.230,-4.639,-5.493
0.356,0.659,0.639,-10.071,-3.479,-4.944
0.349,0.661,0.635,-9.033,-2.258,-4.883
0.343,0.668,0.634,-7.812,-0.916,-5.066
"",,,,,
